"Unit2","Stimulus","ID.x","Region","Trial","Letter","StimSet","base_fr","stim_fr","basesd","stimsd","Z_score","stimID","Duration.s","FamUnfamSpecies","Species","FamUnfam","Clutch","Treatment","Age","DaysPostFledge","Mass","Date","No_reps","Hemisphere","Depth","ISI.check","Peak_V","Trough_V","Peak.to.Peak_s","Type","Quality","Exclude4PC","TroughBeforePeak","Notes","Accuracy.rcorr","Accuracy.count","Accuracy.cross_corr","normal_rcorr","normal_count","normal_cross_corr","Latency","p.value","sigYN","Peak2PeakRatio","Type0","TypeBN","TypeFL","RS_befi","pop_var_befi","RS_zebi","pop_var_zebi","dprime"
"A2_FL_TRIAL1_A",4,"A2","FL",1,"A","A2",3.846153846,5.338691159,2.511511957,2.235614512,0.526556025,"BR90",1.34,"Unfamiliar_BEFI","BEFI","Unfamiliar","A","xfostered",23,2,9.6,"5/22/21",15,"R",1.12,"x",-0.979,0.39,0.000479999,NA,"Good","Y","N","Inverted but beautiful",0.273777778,0.319444444,0.305555556,0.073777778,0.119444444,0.105555556,0.115,0.167724609,"N",0.398365679,"Field L","Field L","Broad",1.492537313,8.21927103508971,2.917112299,7.5702765292035,0.717018674839538
"A2_FL_TRIAL1_B",4,"A2","FL",1,"B","A2",2.307692308,5.970149253,1.182131929,2.953816439,1.286853416,"BR90",1.34,"Unfamiliar_BEFI","BEFI","Unfamiliar","A","xfostered",23,2,9.6,"5/22/21",15,"R",1.12,"x",0.931,0,0.0032,NA,"Bad","Y","N","ISI and PSTH look good but shape is gross; fat with no hyperpolarization",0.554333333,0.120222222,0.530777778,0.354333333,-0.079777778,0.330777778,0.025,0.004154489,"Y",0,"Field L","Field L","Broad",3.662456945,8.19571048450921,2.874331551,3.24144242068521,-0.466086316574017
"A2_FL_TRIAL2_A",4,"A2","FL",2,"A","A2",5.333333333,23.13432836,2.964435661,5.011176477,4.931675475,"BR90",1.34,"Unfamiliar_BEFI","BEFI","Unfamiliar","A","xfostered",23,2,9.6,"5/22/21",15,"R",1.22,"x",-0.774,0.001,0.000240002,NA,"Good","N","N","Inverted",0.881125,0.5875,0.775375,0.681125,0.3875,0.575375,0.015,0.000488281,"Y",0.00129199,"Field L","Field L","Narrow",17.800995027,14.5324992000491,12.33193277,21.426647125632,-1.82405603767932
"A2_FL_TRIAL2_B",4,"A2","FL",2,"B","A2",2.833333333,19.52736318,2.367712104,4.520748046,5.318579829,"BR90",1.34,"Unfamiliar_BEFI","BEFI","Unfamiliar","A","xfostered",23,2,9.6,"5/22/21",15,"R",1.22,"x",0.733,0.06,0.001020065,NA,"Good","N","N","",0.783875,0.30075,0.695625,0.583875,0.10075,0.495625,0.01,0.002516497,"Y",0.081855389,"Field L","Field L","Broad",16.694029847,11.0205502410949,8.838235296,17.350809439568,-2.94971487229835
"A2_FL_TRIAL3_A",4,"A2","FL",3,"A","A2",0.785714286,10.12793177,1.121713759,2.530115503,4.580216583,"BR90",1.34,"Unfamiliar_BEFI","BEFI","Unfamiliar","A","xfostered",23,2,9.6,"5/22/21",15,"R",1.38,"x",0.692,-0.159,0.00018,NA,"Good","N","Y","Trough before peak",0.619666667,0.302888889,0.569666667,0.419666667,0.102888889,0.369666667,0.01,0.001087736,"Y",0.229768786,"Field L","Field L","Narrow",9.342217484,4.37120785138172,7.794117647,4.70575877128868,-1.02768162487003
"A2_FL_TRIAL4_A",4,"A2","FL",4,"A","A2",3,11.64179104,1.946657054,3.056874137,2.816600709,"BR90",1.34,"Unfamiliar_BEFI","BEFI","Unfamiliar","A","xfostered",23,2,9.6,"5/22/21",20,"R",1.47,"x",-0.755,0.29,0.000180001,NA,"Good","N","N","Inverted",0.6125,0.361333333,0.528833333,0.4125,0.161333333,0.328833333,0.04,9.54e-05,"Y",0.38410596,"Field L","Field L","Narrow",8.64179104,9.5668077489047,6.818885444,16.8445877971369,-0.709411948768517
"A2_FL_TRIAL5_A",4,"A2","FL",5,"A","A2",2.333333333,13.93034826,2.023669463,4.170973917,3.560868326,"BR90",1.34,"Unfamiliar_BEFI","BEFI","Unfamiliar","A","xfostered",23,2,9.6,"5/22/21",15,"L",1.39,"x",0.672,-0.201,0.000179998,NA,"Good","N","N","Higher peak was after lower peak",0.423727273,0.314181818,0.348363636,0.223727273,0.114181818,0.148363636,0.01,0.000724715,"Y",0.299107143,"Field L","Field L","Narrow",11.597014927,11.2368901741655,10.151260501,13.7014158608251,-0.579016648365874
"A2_FL_TRIAL5_B",4,"A2","FL",5,"B","A2",1.866666667,16.46766169,1.684664726,7.427779054,2.256522557,"BR90",1.34,"Unfamiliar_BEFI","BEFI","Unfamiliar","A","xfostered",23,2,9.6,"5/22/21",15,"L",1.39,"x",-0.85,0.357,0.000120009,NA,"Good","N","N","Inverted",0.734363636,0.596272727,0.630363636,0.534363636,0.396272727,0.430363636,0.03,6.1e-05,"Y",0.42,"Field L","Field L","Narrow",14.600995023,42.6866107196929,11.460084037,17.2237527321404,-0.811586187504471
"A2_FL_TRIAL6_A",4,"A2","FL",6,"A","A2",4.666666667,9.004975124,3.177300441,2.561447164,1.083110983,"BR90",1.34,"Unfamiliar_BEFI","BEFI","Unfamiliar","A","xfostered",23,2,9.6,"5/22/21",15,"L",1.44,"x",0.7,-0.042,0.001259771,NA,"Good","N","N","",0.536636364,0.253545455,0.505818182,0.336636364,0.053545455,0.305818182,0.04,0.002624512,"Y",0.06,"Field L","Field L","Broad",4.338308457,16.0101779654076,3.502262443,10.5936201158718,-0.324181595103449
"A2_FL_TRIAL6_B",4,"A2","FL",6,"B","A2",4.066666667,6.417910448,3.731462116,3.782169825,0.622703316,"BR90",1.34,"Unfamiliar_BEFI","BEFI","Unfamiliar","A","xfostered",23,2,9.6,"5/22/21",15,"L",1.44,"x",-0.865,0.114,0.001019992,NA,"Good","N","N","Inverted",0.334454545,0.285272727,0.241636364,0.134454545,0.085272727,0.041636364,0.02,0.055358887,"N",0.131791908,"Field L","Field L","Broad",2.351243781,15.0631281391655,1.590497737,14.3238570013193,-0.280667535780442
"A2_FL_TRIAL7_A",4,"A2","FL",7,"A","A2",0.538461538,2.468427095,0.967417922,1.375532441,0.980630303,"BR90",1.34,"Unfamiliar_BEFI","BEFI","Unfamiliar","A","xfostered",23,2,9.6,"5/22/21",15,"L",1.54,"x",0.772,-0.03,0.001259961,NA,"Bad","N","N","",0.479,0.181375,0.41075,0.279,-0.018625,0.21075,0.01,0.009605267,"Y",0.038860104,"Field L","Field L","Broad",1.929965557,3.77621826402057,1.556862745,1.03580930432201,-0.340168789463387
"A2_FL_TRIAL7_B",4,"A2","FL",7,"B","A2",0.384615385,2.066590126,0.506369684,1.527994449,1.318860362,"BR90",1.34,"Unfamiliar_BEFI","BEFI","Unfamiliar","A","xfostered",23,2,9.6,"5/22/21",15,"L",1.54,"x",-1.054,0.157,0.000359963,NA,"Bad","N","N","Inverted",0.501125,0.51,0.451875,0.301125,0.31,0.251875,NA,0.004990659,"Y",0.148956357,"Field L","Field L","Narrow",1.681974741,1.68532942472341,0.678431373,1.18748173793364,-1.18416603730753
"A2_NCM_TRIAL1_A",4,"A2","NCM",1,"A","A2",11.23076923,33.7543054,3.539158237,7.40746889,3.764105769,"BR90",1.34,"Unfamiliar_BEFI","BEFI","Unfamiliar","A","xfostered",23,2,9.6,"5/22/21",15,"R",1.14,"x",0.4347,-0.131,0.000179999,NA,"Good","Y","N","",0.988,0.822666667,0.968,0.788,0.622666667,0.768,0.03,0.000244141,"Y",0.301357258,"NS1","Narrow","NCM",22.52353617,37.8367449141034,22.53743315,23.3905459042506,0.00355204048063656
"A2_NCM_TRIAL2_A",4,"A2","NCM",2,"A","A2",4.25,13.12189055,4.55521679,9.170072739,1.264086457,"BR90",1.34,"Unfamiliar_BEFI","BEFI","Unfamiliar","A","xfostered",23,2,9.6,"5/22/21",15,"R",1.24,"x",0.3594,0.0343,0.000899996,NA,"Good","N","N","",0.5475,0.19575,0.42925,0.3475,-0.00425,0.22925,0.04,0.003251806,"Y",0.095436839,"Broad","Broad","NCM",8.87189055,53.162005581295,3.640756303,14.1491817374409,-1.2752115439119
"A2_NCM_TRIAL2_B",4,"A2","NCM",2,"B","A2",2.416666667,5.348258707,4.907477288,3.681255868,0.551712399,"BR90",1.34,"Unfamiliar_BEFI","BEFI","Unfamiliar","A","xfostered",23,2,9.6,"5/22/21",15,"R",1.24,"x",-0.3945,0.0247,0.001259966,NA,"Good","N","N","Inverted; might not be auditory",0.318625,0.397875,0.477,0.118625,0.197875,0.277,0.025,0.107530921,"N",0.0626109,"Broad","Broad","NCM",2.93159204,28.7566072040698,2.279411765,8.0073838350959,-0.215122744266499
"A2_NCM_TRIAL3_B",4,"A2","NCM",3,"B","A2",7.285714286,11.72707889,4.9369653,4.714627937,0.846516046,"BR90",1.34,"Unfamiliar_BEFI","BEFI","Unfamiliar","A","xfostered",23,2,9.6,"5/22/21",15,"R",1.44,"x",0.2604,-0.0164,0.001259995,NA,"Bad","N","N","",0.438444444,0.312444444,0.433333333,0.238444444,0.112444444,0.233333333,0.095,0.010039381,"Y",0.062980031,"Broad","Broad","NCM",4.441364604,28.6519019177701,0.642857142,9.1496363218331,-1.23562942855292
"A2_NCM_TRIAL6_A",4,"A2","NCM",6,"A","A2",6.533333333,11.49253731,3.997618339,5.639850299,0.840468696,"BR90",1.34,"Unfamiliar_BEFI","BEFI","Unfamiliar","A","xfostered",23,2,9.6,"5/22/21",15,"L",1.02,"x",0.26941,-0.04681,0.000479849,NA,"Good","N","N","",0.448,0.186818182,0.357636364,0.248,-0.013181818,0.157636364,0.135,0.012451172,"Y",0.173750046,"Broad","Broad","NCM",4.959203977,35.4686111673227,3.457013575,31.6648410275315,-0.366678535604091
"A2_NCM_TRIAL7_A",4,"A2","NCM",7,"A","A2",10.23076923,16.07347876,8.166535844,5.631035779,0.757040895,"BR90",1.34,"Unfamiliar_BEFI","BEFI","Unfamiliar","A","xfostered",23,2,9.6,"5/22/21",15,"L",0.97,"x",0.28998,-0.04797,0.000839939,NA,"Bad","N","N","",0.778,0.359875,0.70375,0.578,0.159875,0.50375,0.11,0.013427734,"Y",0.165425202,"Broad","Broad","NCM",5.84270953,61.9699647230383,4.10196078,28.7522337648382,-0.36551845104528
"A3_FL_TRIAL1_A",1,"A3","FL",1,"A","A3",3.666666667,10.2676399,2.497617913,5.589453663,1.531575666,"LP80",1.37,"Unfamiliar_BEFI","BEFI","Unfamiliar","A","normal",20,3,11.7,"5/16/21",15,"L",1.73,"x",-0.535,0.244,0.00018,NA,"Good","N","N","Drifted into the spot so first presentations not great",0.235714286,0.276571429,0.199285714,0.035714286,0.076571429,-0.000714286,0.035,0.000305176,"Y",0.456074766,"Field L","Field L","Narrow",6.600973233,19.6691684316305,9.37171717,26.5768554239203,0.814871610914582
"A3_FL_TRIAL2_A",1,"A3","FL",2,"A","A3",0.727272727,3.450564035,0.786245393,1.790655681,2.185579914,"LP80",1.37,"Unfamiliar_BEFI","BEFI","Unfamiliar","A","normal",20,3,11.7,"5/16/21",15,"L",1.79,"x",-1.041,0.135,0.001019988,NA,"Good","N","N","Inverted",0.758714286,0.477571429,0.618,0.558714286,0.277571429,0.418,0.01,0.003822354,"Y",0.129682997,"Field L","Field L","Broad",2.723291308,1.72752415250807,3.398989899,3.51726864560088,0.59009079663557
"A3_FL_TRIAL3_A",1,"A3","FL",3,"A","A3",1.2,6.532846716,1.794729125,2.87592021,1.996170683,"LP80",1.37,"Unfamiliar_BEFI","BEFI","Unfamiliar","A","normal",20,3,11.7,"5/16/21",20,"L",1.64,"ok",-0.717,0.313,0.00018,NA,"Bad","N","N","Inverted; Low S:N",0.331789474,0.350526316,0.353947368,0.131789474,0.150526316,0.153947368,0.065,9.53e-05,"Y",0.436541144,"Field L","Field L","Narrow",5.332846716,7.32613032225782,7.133333333,12.98681359011,0.798975493384262
"A3_FL_TRIAL4_A",1,"A3","FL",4,"A","A3",0.75,2.00729927,1.164157703,1.672472881,0.631496534,"LP80",1.37,"Unfamiliar_BEFI","BEFI","Unfamiliar","A","normal",20,3,11.7,"5/16/21",20,"L",1.49,"x",-0.942,0.161,0.000420001,NA,"Good","N","N","Inverted",0.324882353,0.248411765,0.227588235,0.124882353,0.048411765,0.027588235,0.05,0.014825013,"Y",0.170912951,"Field L","Field L","Broad",1.25729927,3.96305543720631,2.731818182,2.81884986222862,1.13241205049078
"A3_NCM_TRIAL1_A",1,"A3","NCM",1,"A","A3",2.933333333,11.48418491,1.667618776,2.860008355,2.292912099,"LP80",1.37,"Unfamiliar_BEFI","BEFI","Unfamiliar","A","normal",20,3,11.7,"5/16/21",15,"L",1,"x",0.3605,-0.0821,0.000360008,NA,"Good","N","N","",0.409071429,0.312142857,0.401428571,0.209071429,0.112142857,0.201428571,0.165,0.000724715,"Y",0.227739251,"NS1","Narrow","NCM",8.550851577,13.6621724903006,10.37979798,13.1627629887953,0.706255155953837
"A3_NCM_TRIAL2_A",1,"A3","NCM",2,"A","A3",0.272727273,14.66489715,0.646669791,7.258679443,2.055007988,"LP80",1.37,"Unfamiliar_BEFI","BEFI","Unfamiliar","A","normal",20,3,11.7,"5/16/21",15,"L",1.1,"x",0.637,-0.392,0.000180003,NA,"Good","N","N","Only 1st half of trial are these measurements (second half peak, trough , p2p = 0.4866V, -0.193V, 0.000179996s)",0.756428571,0.297428571,0.784428571,0.556428571,0.097428571,0.584428571,0.075,0.0038398,"Y",0.615384615,"NS2","Narrow","NCM",14.392169877,48.9785002589845,14.03787879,110.354931898494,-0.0561353929198849
"A3_NCM_TRIAL3_A",1,"A3","NCM",3,"A","A3",5.8,17.26277372,2.307881234,3.964695253,2.612251897,"LP80",1.37,"Unfamiliar_BEFI","BEFI","Unfamiliar","A","normal",20,3,11.7,"5/16/21",20,"L",1.2,"x",0.3667,-0.0511,0.000420005,NA,"Good","N","N","",0.811315789,0.510631579,0.782789474,0.611315789,0.310631579,0.582789474,0.055,9.56e-05,"Y",0.139350968,"Broad","Broad","NCM",11.46277372,19.2921380966874,13.21060606,31.4330096482243,0.490815315564898
"A3_NCM_TRIAL4_A",1,"A3","NCM",4,"A","A3",0.9,1.277372263,0.718184846,1.107622224,0.320479189,"LP80",1.37,"Unfamiliar_BEFI","BEFI","Unfamiliar","A","normal",20,3,11.7,"5/16/21",20,"L",1.3,"x",0.3437,-0.0586,0.00024,NA,"Good","N","N","",0.343470588,0.294411765,0.274352941,0.143470588,0.094411765,0.074352941,0.015,0.222194712,"N",0.170497527,"NS1","Narrow","NCM",0.377372263,1.40001118885909,1.501515152,3.32070477445735,1.03477893215013
"A4_FL_TRIAL1_A",2,"A4","FL",1,"A","A4",1.263157895,2.717391304,1.557851272,1.78421337,1.357040904,"DB10",1.84,"Unfamiliar_BEFI","BEFI","Unfamiliar","A","normal",21,4,12,"5/17/21",20,"R",1.1,"x",-1.23,0.093,0.000180029,NA,"Bad","Y","N","Inverted with double depolarization peak; Loose spot a bit after 45 presentations",0.256647059,0.282058824,0.280352941,0.056647059,0.082058824,0.080352941,0.025,0.000666805,"Y",0.075609756,"Field L","Field L","Narrow",1.454233409,1.36766962167395,2.899062725,4.00296709177923,1.24690582136485
"A4_FL_TRIAL3_A",2,"A4","FL",3,"A","A4",2.95,6.929347826,2.235479461,2.730944463,1.907364295,"DB10",1.84,"Unfamiliar_BEFI","BEFI","Unfamiliar","A","normal",21,4,12,"5/17/21",20,"R",1.25,"x",-1.133,0.355,0.000240001,NA,"Good","N","N","Inverted",0.336,0.170466667,0.3336,0.136,-0.029533333,0.1336,0.015,9.56e-05,"Y",0.313327449,"Field L","Field L","Narrow",3.979347826,4.72667651240332,6.502523432,7.60251361163031,1.43717680058384
"A4_FL_TRIAL3_B",2,"A4","FL",3,"B","A4",0.9,3.831521739,1.483239697,3.01037799,0.873404853,"DB10",1.84,"Unfamiliar_BEFI","BEFI","Unfamiliar","A","normal",21,4,12,"5/17/21",20,"R",1.25,"x",1.014,-0.09,0.001259997,NA,"Bad","N","N","Shape is weird",0.3034,0.216266667,0.297,0.1034,0.016266667,0.097,0.04,0.001076452,"Y",0.088757396,"Field L","Field L","Broad",2.931521739,11.2373003362956,3.264599856,5.64342184749338,0.162136422133274
"A4_FL_TRIAL4_A",2,"A4","FL",4,"A","A4",1.857142857,6.98757764,1.67616342,1.30994314,1.966938942,"DB10",1.84,"Unfamiliar_BEFI","BEFI","Unfamiliar","A","normal",21,4,12,"5/17/21",20,"R",1.3,"ok",-1.324,0.406,0.00024,NA,"Bad","N","N","Inverted; lost spot after 460s",0.189,0.220666667,0.249666667,-0.011,0.020666667,0.049666667,0.225,0.022254125,"Y",0.306646526,"Field L","Field L","Narrow",5.130434783,6.38563326947367,6.760273973,11.1595984263526,0.778207116769489
"A4_FL_TRIAL5_A",2,"A4","FL",5,"A","A4",2.909090909,5.286561265,1.375103302,1.538934469,1.17142902,"DB10",1.84,"Unfamiliar_BEFI","BEFI","Unfamiliar","A","normal",21,4,12,"5/17/21",20,"R",1.35,"ok",-1.028,0.5,0.00018,NA,"Bad","N","N","Inverted; Lost spot after 640s",0.211857143,0.172714286,0.18,0.011857143,-0.027285714,-0.02,0.15,0.002929688,"Y",0.486381323,"Field L","Field L","Narrow",2.377470356,4.09660360258751,3.255707762,9.91315860731362,0.46927405558944
"A4_NCM_TRIAL1_A",2,"A4","NCM",1,"A","A4",0.947368421,3.97597254,1.129094239,1.281664574,2.86886587,"DB10",1.84,"Unfamiliar_BEFI","BEFI","Unfamiliar","A","normal",21,4,12,"5/17/21",20,"R",1.06,"x",0.6942,0.0843,0.000240001,NA,"Bad","N","N","Weird double peak",0.350705882,0.226764706,0.379352941,0.150705882,0.026764706,0.179352941,0.02,0.00014103,"Y",0.121434745,"NS1","Narrow","NCM",3.028604119,1.20127612326028,4.077144917,5.00333252007953,0.841895391352325
"A4_NCM_TRIAL1_B",2,"A4","NCM",1,"B","A4",1.157894737,5.463386728,1.25888654,2.258860272,1.598951591,"DB10",1.84,"Unfamiliar_BEFI","BEFI","Unfamiliar","A","normal",21,4,12,"5/17/21",20,"R",1.06,"x",-0.832,0.002,0.001,NA,"Bad","N","N","Inverted, horrible shape",0.684529412,0.338764706,0.648823529,0.484529412,0.138764706,0.448823529,0.095,0.000270227,"Y",0.002403846,"Broad","Broad","NCM",4.305491991,7.2024412335677,2.657534247,2.98754580214906,-1.03249807707334
"A4_NCM_TRIAL3_A",2,"A4","NCM",3,"A","A4",1.1,6.630434783,1.209610638,1.492027698,2.99344756,"DB10",1.84,"Unfamiliar_BEFI","BEFI","Unfamiliar","A","normal",21,4,12,"5/17/21",20,"R",1.25,"x",0.5946,-0.0333,0.00042,NA,"Good","N","N","",0.524066667,0.519866667,0.437866667,0.324066667,0.319866667,0.237866667,0.07,9.49e-05,"Y",0.056004036,"Broad","Broad","NCM",5.530434783,3.41788279727669,5.428262437,9.5191720020319,-0.0568127291422896
"A4_NCM_TRIAL4_A",2,"A4","NCM",4,"A","A4",1.0625,6.861413044,1.181453907,3.407771938,2.259139373,"DB10",1.84,"Unfamiliar_BEFI","BEFI","Unfamiliar","A","normal",21,4,12,"5/17/21",20,"R",1.35,"x",0.588,-0.183,0.0004199,NA,"Good","Y","N","",0.390142857,0.352428571,0.396642857,0.190142857,0.152428571,0.196642857,0.01,0.000481351,"Y",0.31122449,"Broad","Broad","NCM",5.798913044,6.939242676993,7.141821111,13.2492122153745,0.597757092000469
"A4_NCM_TRIAL5_A",2,"A4","NCM",5,"A","A4",0.823529412,5.722506394,1.074435556,2.25000695,2.107467968,"DB10",1.84,"Unfamiliar_BEFI","BEFI","Unfamiliar","A","normal",21,4,12,"5/17/21",20,"R",1.45,"x",0.531,-0.213,0.00036,NA,"Good","N","N","",0.337272727,0.185272727,0.321727273,0.137272727,-0.014727273,0.121727273,0.07,0.000319807,"Y",0.401129944,"NS2","Narrow","NCM",4.898976982,5.42999784108546,6.085996956,5.02407801322353,0.734252102974856
"A5_FL_TRIAL1_A",1,"A5","FL",1,"A","A5",1.95,3.214285714,1.791059669,1.772507554,0.629028021,"YE77",1.4,"Unfamiliar_BEFI","BEFI","Unfamiliar","A","normal",20,2,10.6,"5/19/21",20,"R",1.25,"x",-0.8269,0.295,0.000599999,NA,"Good","N","N","Inverted",0.149,0.367,0.179625,-0.051,0.167,-0.020375,0.125,0.014456483,"Y",0.356754142,"Field L","Field L","Broad",1.264285714,4.13933673456612,3.12181894,8.48524742837104,1.0455818732697
"A5_FL_TRIAL1_B",1,"A5","FL",1,"B","A5",1.5,4.321428571,1.762175689,2.311357564,1.264294309,"YE77",1.4,"Unfamiliar_BEFI","BEFI","Unfamiliar","A","normal",20,2,10.6,"5/19/21",20,"R",1.25,"x",0.759,0,0.001320188,NA,"Bad","N","N","Shape is weird",0.646125,0.4755,0.691625,0.446125,0.2755,0.491625,0.08,0.000417355,"Y",0,"Field L","Field L","Broad",2.821428571,5.13239795801633,5.049228202,4.15951659610917,1.46168408923055
"A5_FL_TRIAL2_A",1,"A5","FL",2,"A","A5",1,3.681318681,1,2.038034473,1.945226841,"YE77",1.4,"Unfamiliar_BEFI","BEFI","Unfamiliar","A","normal",20,2,10.6,"5/19/21",20,"R",1.35,"ok",-1.021,0.312,0.000539945,NA,"Bad","N","N","Inverted",0.4295,0.13975,0.3675,0.2295,-0.06025,0.1675,0.1,0.001656248,"Y",0.305582762,"Field L","Field L","Broad",2.681318681,2.11979229589832,1.192034915,3.04001471512855,-1.31126576308168
"A5_NCM_TRIAL1_A",1,"A5","NCM",1,"A","A5",0.736842105,3.909774436,0.991189256,2.986823113,0.996087671,"YE77",1.4,"Unfamiliar_BEFI","BEFI","Unfamiliar","A","normal",20,2,10.6,"5/19/21",20,"R",1.01,"ok",0.3452,-0.107,0.000240002,NA,"Good","N","N","",0.34275,0.14925,0.24,0.14275,-0.05075,0.04,0.17,0.001085253,"Y",0.309965238,"NS1","Narrow","NCM",3.172932331,10.1065068701912,3.409827761,6.42916911589954,0.116513353276024
"A5_NCM_TRIAL2_A",1,"A5","NCM",2,"A","A5",1,5.274725275,2.768874621,3.120843652,1.735431587,"YE77",1.4,"Unfamiliar_BEFI","BEFI","Unfamiliar","A","normal",20,2,10.6,"5/19/21",20,"R",1.11,"x",0.4146,-0.0409,0.001259986,NA,"Good","N","N","",0.37425,0.256125,0.474625,0.17425,0.056125,0.274625,0.135,0.001634576,"Y",0.098649301,"Broad","Broad","NCM",4.274725275,6.8366139348755,4.705946536,4.73968276931932,0.253480955895435
"B3_NCM_TRIAL1_A",1,"B3","NCM",1,"A","B3",0.666666667,2.898550725,0.975900073,1.774992567,1.114465363,"DB10",1.84,"Unfamiliar_BEFI","BEFI","Unfamiliar","B","BEFI",33,6,8.3,"7/27/21",15,"R",1.08,"x",0.6563,-0.0358,0.00024,NA,"Good","N","N","",0.352214286,0.205857143,0.290857143,0.152214286,0.005857143,0.090857143,0.03,0.004889127,"Y",0.054548225,"NS1","Narrow","NCM",2.231884058,3.99852972044776,0.835075493,1.5735882295315,-1.18346858621964
"B4_FL_TRIAL1_A",5,"B4","FL",1,"A","B4",3.066666667,4.047619048,1.334523279,2.204333571,0.531351549,"YE77",1.4,"Unfamiliar_BEFI","BEFI","Unfamiliar","B","BEFI",30,9,13,"1/11/22",15,"L",0.69,"x",-0.5299,0.1363,0.000765,NA,"Bad","N","N","Inverted; Might not be auditory",0.208571429,0.152928571,0.2315,0.008571429,-0.047071429,0.0315,0.03,0.111624256,"N",0.257218343,"Field L","Field L","Broad",0.980952381,3.5941950113834,-0.395959596,1.97728395063093,-1.16667777798285
"B4_FL_TRIAL2_B",5,"B4","FL",2,"B","B4",5.909090909,9.935064935,3.67299729,2.9872953,1.355716821,"YE77",1.4,"Unfamiliar_BEFI","BEFI","Unfamiliar","B","BEFI",30,9,13,"1/11/22",15,"L",0.89,"x",-0.577,0.378,0.00024,NA,"Good","Y","N","Inverted, Drifts into spot around 200s, not really there before this (cut out first 200s for both units)",0.448,0.3732,0.4518,0.248,0.1732,0.2518,0.135,0.002929688,"Y",0.655112652,"Field L","Field L","Narrow",4.025974026,9.8694552198057,4.73737374,28.2265585235324,0.230517507223598
"B4_FL_TRIAL3_A",5,"B4","FL",3,"A","B4",1.266666667,7.904761905,1.709915063,4.537394568,1.641199821,"YE77",1.4,"Unfamiliar_BEFI","BEFI","Unfamiliar","B","BEFI",30,9,13,"1/11/22",15,"R",1.14,"ok",-0.4909,0.0884,0.00048,NA,"Bad","Y","N","Inverted; Lost sweet spot after 250s but keep whole trial",0.36525,0.17775,0.3295,0.16525,-0.02225,0.1295,0.085,0.00012207,"Y",0.180077409,"Field L","Field L","Broad",6.638095238,16.731609978964,5.341991343,10.8857967458149,-0.493262799544776
"B4_FL_TRIAL3_B",5,"B4","FL",3,"B","B4",0.533333333,3.714285714,0.743223353,2.146255808,1.578724247,"YE77",1.4,"Unfamiliar_BEFI","BEFI","Unfamiliar","B","BEFI",30,9,13,"1/11/22",15,"R",1.14,"ok",0.4589,0,0.0015,NA,"Bad","Y","N","Fat and ugly; Lost sweet spot after 250s but keep whole trial",0.662916667,0.372666667,0.720416667,0.462916667,0.172666667,0.520416667,0.165,0.001355471,"Y",0,"Field L","Field L","Broad",3.180952381,4.1101133785444,3.365800866,7.46903637528892,0.10864445252537
"B4_FL_TRIAL4_A",5,"B4","FL",4,"A","B4",1.6,4.285714286,1.183215957,1.66423535,1.265503184,"YE77",1.4,"Unfamiliar_BEFI","BEFI","Unfamiliar","B","BEFI",30,9,13,"1/11/22",15,"R",1.27,"x",-0.4791,0.1626,0.00048,NA,"Good","N","N","Inverted",0.301,0.254,0.304461538,0.101,0.054,0.104461538,0.205,0.001329052,"Y",0.339386349,"Field L","Field L","Broad",2.685714286,4.46312925228789,2.11038961,6.25732744863575,-0.351427994146315
"B4_FL_TRIAL5_A",5,"B4","FL",5,"A","B4",4.857142857,10.10204082,2.734262328,3.335761992,1.478844334,"YE77",1.4,"Unfamiliar_BEFI","BEFI","Unfamiliar","B","BEFI",30,9,13,"1/11/22",15,"R",1.34,"x",-0.4321,0.0835,0.00048,NA,"Bad","Y","N","Inverted; Lost spot after 385s",0.326666667,0.375833333,0.332166667,0.126666667,0.175833333,0.132166667,0.18,0.015625,"Y",0.193242305,"Field L","Field L","Broad",5.244897963,13.0595585168671,9.98701299,14.4123985728692,1.80949455315385
"B4_FL_TRIAL6_A",5,"B4","FL",6,"A","B4",6.111111111,8.650793651,5.57773351,4.409585518,0.641522214,"YE77",1.4,"Unfamiliar_BEFI","BEFI","Unfamiliar","B","BEFI",30,9,13,"1/11/22",15,"R",1,"x",-0.653,0.147,0.000376,NA,"Bad","Y","N","Inverted, lost spot after 500s",0.365,0.264,0.391285714,0.165,0.064,0.191285714,NA,0.1640625,"N",0.225114855,"Field L","Field L","Narrow",2.53968254,18.9241622573898,4.572390576,24.2314956622933,0.618851045216452
"B4_FL_TRIAL6_B",5,"B4","FL",6,"B","B4",3.888888889,10.3968254,3.443996387,3.216489545,1.690581507,"YE77",1.4,"Unfamiliar_BEFI","BEFI","Unfamiliar","B","BEFI",30,9,13,"1/11/22",15,"R",1,"x",0.5741,-0.0418,0.00126,NA,"Bad","Y","N"," lost spot after 500s",0.846857143,0.672714286,0.878142857,0.646857143,0.472714286,0.678142857,0.095,0.00390625,"Y",0.072809615,"Field L","Field L","Broad",6.507936511,15.3655832793197,8.276094273,2.18211293976885,0.844191458820013
"C1_FL_TRIAL10_A",2,"C1","FL",10,"A","C12",7.230769231,9.969230769,2.712742959,3.243296835,0.801030139,"BEFI1",2.5,"Unfamiliar_BEFI","BEFI","Unfamiliar","C","xfostered",23,2,10,"10/24/21",15,"L",1.39,"x",-0.686,0.225,0.00054,NA,"Good","N","N","STIM SET 2 Inverted",0.2664,0.2533,0.2791,0.0664,0.0533,0.0791,0.155,0.0167287,"Y",0.327988338,"Field L","Field L","Broad",2.738461538,12.0577514792899,7.841176467,21.2731026505436,1.76769804118356
"C1_FL_TRIAL10_B",2,"C1","FL",10,"B","C12",7.230769231,12.58461538,2.454718115,2.92855088,1.564913154,"BEFI1",2.5,"Unfamiliar_BEFI","BEFI","Unfamiliar","C","xfostered",23,2,10,"10/24/21",15,"L",1.39,"x",-1.132,0.565,0.00024,NA,"Good","N","N","STIM SET 2 Inverted",0.5831,0.526,0.5118,0.3831,0.326,0.3118,0.145,0.004154489,"Y",0.499116608,"Field L","Field L","Narrow",5.353846149,11.8409467455621,5.282352937,14.9007843115726,-0.0276503126575756
"C1_FL_TRIAL2_A",4,"C1","FL",2,"A","C1",3.6,5.142857143,2.667261838,3.352471783,0.902006691,"YE77",1.4,"Unfamiliar_BEFI","BEFI","Unfamiliar","C","xfostered",23,2,10,"10/24/21",15,"R",1.16,"x",-0.918,0.48,0.000239765,NA,"Good","N","N","Inverted",0.240384615,0.253923077,0.250230769,0.040384615,0.053923077,0.050230769,0.13,0.0134686,"Y",0.522875817,"Field L","Field L","Narrow",1.542857143,3.87265306158694,5.888235294,20.1113264091164,1.77458558794738
"C1_FL_TRIAL3_A",4,"C1","FL",3,"A","C1",1.733333333,6.047619047,1.830950833,2.47239374,1.395194117,"YE77",1.4,"Unfamiliar_BEFI","BEFI","Unfamiliar","C","xfostered",23,2,10,"10/24/21",15,"R",1.21,"x",-0.776,0.201,0.000179992,NA,"Good","N","N","Inverted",0.286307692,0.220384615,0.297153846,0.086307692,0.020384615,0.097153846,0.12,0.001453567,"Y",0.259020619,"Field L","Field L","Narrow",4.314285714,9.51346938494585,4.225490196,9.59846212998593,-0.0406226967224531
"C1_FL_TRIAL4_A",4,"C1","FL",4,"A","C1",2.8,4.238095238,2.144761059,1.465508864,0.650348749,"YE77",1.4,"Unfamiliar_BEFI","BEFI","Unfamiliar","C","xfostered",23,2,10,"10/24/21",15,"R",1.26,"x",-0.695,0.199,0.000540091,NA,"Good","Y","N","Inverted",0.310571429,0.214142857,0.297071429,0.110571429,0.014142857,0.097071429,NA,0.038050001,"Y",0.286330935,"Field L","Field L","Broad",1.438095238,4.98358276648834,3.570588235,6.47114187107456,1.26015881730806
"C1_FL_TRIAL4_B",4,"C1","FL",4,"B","C1",2.333333333,5.904761904,2.526054707,4.186493159,1.219810553,"YE77",1.4,"Unfamiliar_BEFI","BEFI","Unfamiliar","C","xfostered",23,2,10,"10/24/21",15,"R",1.26,"x",-0.661,0.3,0.00018,NA,"Good","Y","N","Inverted",0.360071429,0.255785714,0.367571429,0.160071429,0.055785714,0.167571429,0.15,0.000724715,"Y",0.453857791,"Field L","Field L","Narrow",3.571428571,9.48843536754558,5.015686275,13.2312418335179,0.606001375844654
"C1_FL_TRIAL5_A",4,"C1","FL",5,"A","C1",3.357142857,9.744897959,2.307417566,3.928393032,1.747394535,"YE77",1.4,"Unfamiliar_BEFI","BEFI","Unfamiliar","C","xfostered",23,2,10,"10/24/21",15,"R",1.36,"x",-0.546,0.331,0.00018,NA,"Good","N","N","Inverted",0.347923077,0.241230769,0.309769231,0.147923077,0.041230769,0.109769231,0.02,0.00012207,"Y",0.606227106,"Field L","Field L","Narrow",6.387755102,13.785506038526,6.962745098,4.48978854555619,0.269003599468498
"C1_FL_TRIAL5_B",4,"C1","FL",5,"B","C1",2.285714286,5.408163265,1.540657773,3.052578055,1.065959718,"YE77",1.4,"Unfamiliar_BEFI","BEFI","Unfamiliar","C","xfostered",23,2,10,"10/24/21",15,"R",1.36,"x",0.515,-0.0859,0.000239989,NA,"Good","N","Y","Trough before peak",0.366846154,0.197692308,0.330692308,0.166846154,-0.002307692,0.130692308,NA,0.002105245,"Y",0.166796117,"Field L","Field L","Narrow",3.122448979,8.74302373645439,2.994117647,6.71028834726759,-0.0652907879698112
"C1_FL_TRIAL6_A",4,"C1","FL",6,"A","C1",3,11.78571429,2.511511957,2.97490815,1.927397726,"YE77",1.4,"Unfamiliar_BEFI","BEFI","Unfamiliar","C","xfostered",23,2,10,"10/24/21",15,"R",1.41,"x",-0.644,0.422,0.000179999,NA,"Good","N","N","Inverted",0.472846154,0.279384615,0.442615385,0.272846154,0.079384615,0.242615385,0.11,0.001362926,"Y",0.655279503,"Field L","Field L","Narrow",8.78571429,20.2995626935496,9.698039217,10.5501115038873,0.328514274996808
"C1_FL_TRIAL8_A",2,"C1","FL",8,"A","C12",2.8,5.12,1.521277659,1.77087549,1.019510693,"BEFI1",2.5,"Unfamiliar_BEFI","BEFI","Unfamiliar","C","xfostered",23,2,10,"10/24/21",15,"L",1.29,"x",-1.217,0.244,0.000240001,NA,"Good","N","N","STIM SET 2 Inverted",0.487714286,0.515071429,0.4925,0.287714286,0.315071429,0.2925,NA,0.008357828,"Y",0.200493016,"Field L","Field L","Narrow",2.32,5.17226666666667,1.760784314,6.48729719296657,-0.327542898465696
"C1_FL_TRIAL9_A",2,"C1","FL",9,"A","C12",7.214285714,10.05714286,2.778449247,1.591184506,0.785002462,"BEFI1",2.5,"Unfamiliar_BEFI","BEFI","Unfamiliar","C","xfostered",23,2,10,"10/24/21",15,"L",1.34,"x",-1.085,0.595,0.000240007,NA,"Bad","N","N","STIM SET 2 Inverted",0.391692308,0.440923077,0.327461538,0.191692308,0.240923077,0.127461538,NA,0.023479538,"Y",0.548387097,"Field L","Field L","Narrow",2.842857146,12.8581632653061,0.882352941999999,15.2150271869444,-0.740034365065467
"C1_FL_TRIAL9_B",2,"C1","FL",9,"B","C12",2.714285714,3.857142857,1.489892687,1.417318316,0.561851977,"BEFI1",2.5,"Unfamiliar_BEFI","BEFI","Unfamiliar","C","xfostered",23,2,10,"10/24/21",15,"L",1.34,"x",-1.154,0.535,0.000538728,NA,"Bad","N","N","STIM SET 2 Inverted",0.300538462,0.204307692,0.262769231,0.100538462,0.004307692,0.062769231,0.365,0.067626953,"N",0.463604853,"Field L","Field L","Broad",1.142857143,4.12244897959184,1.697478992,8.68480333240446,0.309955243190619
"C1_NCM_TRIAL2_A",4,"C1","NCM",2,"A","C1",2.8,9.333333333,2.111194652,2.32972093,2.37415728,"YE77",1.4,"Unfamiliar_BEFI","BEFI","Unfamiliar","C","xfostered",23,2,10,"10/24/21",15,"R",1.58,"x",0.4014,-0.0498,0.000239973,NA,"Good","N","Y","Actually had double hyperpolarization hump but I measured the first one",0.373076923,0.222461538,0.321692308,0.173076923,0.022461538,0.121692308,0.175,0.000885492,"Y",0.12406577,"NS1","Narrow","NCM",6.533333333,7.68290249691338,5.454901961,8.89237216480921,-0.529775831771612
"C1_NCM_TRIAL3_A",4,"C1","NCM",3,"A","C1",3.533333333,6.571428571,2.030716505,2.059607367,1.030862834,"YE77",1.4,"Unfamiliar_BEFI","BEFI","Unfamiliar","C","xfostered",23,2,10,"10/24/21",15,"R",1.63,"x",0.3466,-0.06,0.000540002,NA,"Good","N","N","",0.4,0.287230769,0.362230769,0.2,0.087230769,0.162230769,0.21,0.003431484,"Y",0.173110214,"Broad","Broad","NCM",3.038095238,8.62712018175093,0.878431373,6.72397539383923,-1.10241844172873
"C1_NCM_TRIAL6_A",4,"C1","NCM",6,"A","C1",3.071428571,3.87755102,2.894671118,2.200939676,0.24543878,"YE77",1.4,"Unfamiliar_BEFI","BEFI","Unfamiliar","C","xfostered",23,2,10,"10/24/21",15,"R",1.78,"x",0.3386,-0.0517,0.00107999,NA,"Bad","N","N","Might not be auditory, maybe likes Stim1?",0.251538462,0.237846154,0.271153846,0.051538462,0.037846154,0.071153846,NA,0.208725131,"N",0.152687537,"Broad","Broad","NCM",0.806122449,10.8938983758392,3.188235294,7.85372548915765,1.10032051631882
"C1_NCM_TRIAL7_A",4,"C1","NCM",7,"A","C1",2.066666667,5.190476191,1.869555588,2.495866359,1.42318436,"YE77",1.4,"Unfamiliar_BEFI","BEFI","Unfamiliar","C","xfostered",23,2,10,"10/24/21",15,"L",1.21,"x",0.4398,-0.0647,0.00126,NA,"Good","N","Y","Double-troughed (could be a narrow unit if measure the other one…)",0.320142857,0.2315,0.300571429,0.120142857,0.0315,0.100571429,0.335,0.001606449,"Y",0.147112324,"Broad","Broad","NCM",3.123809524,5.10167800502422,2.337254903,12.0160169164514,-0.380221124185171
"C1_NCM_TRIAL9_A",2,"C1","NCM",9,"A","C12",1.714285714,3,1.437335753,0.748331477,0.92165078,"BEFI1",2.5,"Unfamiliar_BEFI","BEFI","Unfamiliar","C","xfostered",23,2,10,"10/24/21",15,"L",1.3,"x",0.494,-0.1259,9e-04,NA,"Good","N","N","STIM SET 2 Only likes 2 of the stimuli?",0.304538462,0.272615385,0.315076923,0.104538462,0.072615385,0.115076923,NA,0.014233988,"Y",0.2548583,"Broad","Broad","NCM",1.285714286,1.98122448979592,1.035714286,2.93600822713394,-0.225480829098209
"C2_FL_TRIAL4_A",1,"C2","FL",4,"A","C2",0.6,3.065693431,0.632455532,2.360401888,1.077172331,"LP80",1.37,"Unfamiliar_BEFI","BEFI","Unfamiliar","C","normal",22,2,12.6,"10/23/21",15,"L",1.4,"ok",-0.505,0.0111,0.000960081,NA,"Bad","N","N","NEW STIM #S; inverted",0.380692308,0.513692308,0.425307692,0.130692308,0.263692308,0.175307692,0.03,0.000701603,"Y",0.021980198,"Field L","Field L","Broad",2.465693431,5.26196174506681,3.41133005,4.73474847635159,0.598171511665109
"C2_FL_TRIAL5_A",1,"C2","FL",5,"A","C2",1,3.260340633,1.133893419,1.557394841,1.317718869,"LP80",1.37,"Unfamiliar_BEFI","BEFI","Unfamiliar","C","normal",22,2,12.6,"10/23/21",15,"L",1.47,"ok",-0.477,0.0602,0.00024,NA,"Bad","N","N","NEW STIM #S; inverted",0.414,0.349769231,0.365615385,0.164,0.099769231,0.115615385,0.055,0.002357553,"Y",0.126205451,"Field L","Field L","Narrow",2.260340633,2.97716210572684,4.847290641,8.80987163158065,1.50700873139511
"C2_FL_TRIAL5_B",1,"C2","FL",5,"B","C2",2.933333333,4.379562044,3.239635488,2.513445421,0.413196086,"LP80",1.37,"Unfamiliar_BEFI","BEFI","Unfamiliar","C","normal",22,2,12.6,"10/23/21",15,"L",1.47,"ok",0.4502,-0.0304,0.001019997,NA,"Bad","N","N","NEW STIM #S; still has AC hum noise",0.313076923,0.396307692,0.307153846,0.063076923,0.146307692,0.057153846,0.025,0.06480213,"N",0.067525544,"Field L","Field L","Broad",1.446228711,12.480124082502,6.839901478,10.0943786583533,2.27041628760024
"C2_NCM_TRIAL1_A",1,"C2","NCM",1,"A","C22",1,3.138686131,0.816496581,1.615762308,1.752218108,"LP80",1.37,"Unfamiliar_BEFI","BEFI","Unfamiliar","C","normal",22,2,12.6,"10/23/21",15,"R",1.17,"ok",0.4971,-0.0928,0.001020215,NA,"Good","N","N","",0.5918,0.4172,0.562,0.3918,0.2172,0.362,0.01,0.00588927,"Y",0.18668276,"Broad","Broad","NCM",2.138686131,1.63575043933301,3.062068965,3.36689655157103,0.825680186556054
"C2_NCM_TRIAL1_B",1,"C2","NCM",1,"B","C22",0.5,1.678832117,0.707106781,0.773248106,1.237781303,"LP80",1.37,"Unfamiliar_BEFI","BEFI","Unfamiliar","C","normal",22,2,12.6,"10/23/21",15,"R",1.17,"ok",-0.5291,0,0.00132,NA,"Bad","N","N","Inverted, really fat",0.4688,0.2844,0.4294,0.2688,0.0844,0.2294,0.01,0.010724438,"Y",0,"Broad","Broad","NCM",1.178832117,0.915128669672801,1.475862069,1.46178359091686,0.385321875333033
"C2_NCM_TRIAL4_A",1,"C2","NCM",4,"A","C2",2.266666667,4.087591241,2.404361117,1.762221495,0.728360727,"LP80",1.37,"Unfamiliar_BEFI","BEFI","Unfamiliar","C","normal",22,2,12.6,"10/23/21",15,"L",1.2,"x",0.3606,-0.0856,0.000840594,NA,"Bad","N","N","NEW STIM #S",0.535230769,0.290076923,0.494846154,0.285230769,0.040076923,0.244846154,0.075,0.028735659,"Y",0.237382141,"Broad","Broad","NCM",1.820924574,6.38640926806006,1.172413793,5.98675046837642,-0.368728652363064
"C2_NCM_TRIAL5_A",1,"C2","NCM",5,"A","C2",0.333333333,2.871046229,0.6172134,2.091406321,1.038850982,"LP80",1.37,"Unfamiliar_BEFI","BEFI","Unfamiliar","C","normal",22,2,12.6,"10/23/21",15,"L",1.25,"ok",0.47772,-0.082,0.000479998,NA,"Bad","N","N","NEW STIM #S; LOTS OF SMALL MOVEMENTS IN THIS CHANNEL",0.547,0.281,0.447230769,0.297,0.031,0.197230769,0.08,0.005658518,"Y",0.171648664,"Broad","Broad","NCM",2.537712896,5.86535007470384,1.394088669,3.26222427143197,-0.757069330974879
"C4_FL_TRIAL3_A",1,"C4","FL",3,"A","C4",1.133333333,4.826666667,0.915475416,1.37293568,2.110160681,"BEFI1",2.5,"Unfamiliar_BEFI","BEFI","Unfamiliar","C","xfostered",26,3,8.3,"10/28/21",15,"R",1.08,"x",-0.927,0.169,0.000598735,NA,"Good","N","N","Inverted",0.348357143,0.177714286,0.312214286,0.148357143,-0.022285714,0.112214286,0.07,0.000724715,"Y",0.182308522,"Field L","Field L","Broad",3.693333334,3.02862222222222,4.124137931,8.6342925094563,0.252293914003891
"C4_FL_TRIAL3_B",1,"C4","FL",3,"B","C4",0.866666667,3.893333333,1.187233679,1.405838167,1.93453642,"BEFI1",2.5,"Unfamiliar_BEFI","BEFI","Unfamiliar","C","xfostered",26,3,8.3,"10/28/21",15,"R",1.08,"bad",0.82,-0.077,0.00126,NA,"Bad","N","N","",0.492357143,0.162142857,0.459214286,0.292357143,-0.037857143,0.259214286,0.085,0.000722919,"Y",0.093902439,"Field L","Field L","Broad",3.026666666,2.49528888888889,2.871264367,2.87395428690024,-0.134131536073505
"C4_FL_TRIAL3_C",1,"C4","FL",3,"C","C4",1,4.32,1.309307341,1.060458122,3.077392669,"BEFI1",2.5,"Unfamiliar_BEFI","BEFI","Unfamiliar","C","xfostered",26,3,8.3,"10/28/21",15,"R",1.08,"ok",-0.868,0.088,0.000180001,NA,"Good","N","N","inverted",0.5315,0.256142857,0.511714286,0.3315,0.056142857,0.311714286,0.07,0.000713984,"Y",0.101382488,"Field L","Field L","Narrow",3.32,1.26293333333333,5.029885058,4.00917426402797,1.48937747132054
"C4_FL_TRIAL4_A",1,"C4","FL",4,"A","C4",3.533333333,10.34666667,2.325838303,2.665618842,2.203288062,"BEFI1",2.5,"Unfamiliar_BEFI","BEFI","Unfamiliar","C","xfostered",26,3,8.3,"10/28/21",15,"R",1.13,"x",-0.938,0.31,0.000239985,NA,"Good","N","N","inverted",0.5005,0.317714286,0.468857143,0.3005,0.117714286,0.268857143,0.075,0.000724715,"Y",0.330490405,"Field L","Field L","Narrow",6.813333337,9.70382222222222,11.505747127,4.80724006047351,2.46363687018819
"C4_FL_TRIAL5_A",1,"C4","FL",5,"A","C4",3,9.28,1.647508942,1.68489084,3.266044162,"BEFI1",2.5,"Unfamiliar_BEFI","BEFI","Unfamiliar","C","xfostered",26,3,8.3,"10/28/21",15,"R",1.18,"x",-0.4775,0.054,0.0005999,NA,"Good","N","N","Inverted",0.348230769,0.215153846,0.321230769,0.148230769,0.015153846,0.121230769,0.095,0.000724715,"Y",0.113089005,"Field L","Field L","Broad",6.28,3.79626666666667,7.154022993,8.45990751900504,0.499315894747442
"C4_FL_TRIAL5_B",1,"C4","FL",5,"B","C4",3.2,12.90666667,1.656157342,3.233632779,2.5359499,"BEFI1",2.5,"Unfamiliar_BEFI","BEFI","Unfamiliar","C","xfostered",26,3,8.3,"10/28/21",15,"R",1.18,"x",0.449,0.0164,0.001,NA,"Duplicate","N","N","",0.723153846,0.298,0.681538462,0.523153846,0.098,0.481538462,0.055,0.00012207,"Y",0.036525612,"Field L","Field L","Broad",9.70666667,14.4952888888889,8.393103447,10.405041613786,-0.526475808877848
"C4_FL_TRIAL6_A",1,"C4","FL",6,"A","C4",0.384615385,3.507692308,0.506369684,1.415663295,2.570306748,"BEFI1",2.5,"Unfamiliar_BEFI","BEFI","Unfamiliar","C","xfostered",26,3,8.3,"10/28/21",15,"R",1.23,"ok",-0.689,0.121,0.000720211,NA,"Good","N","N","Inverted",0.366083333,0.13575,0.292,0.166083333,-0.06425,0.092,0.14,0.001656248,"Y",0.175616836,"Field L","Field L","Broad",3.123076923,1.52331360946746,1.526436782,2.67546043101474,-1.55838868970361
"C4_FL_TRIAL7_A",1,"C4","FL",7,"A","C4",2.4,6.48,1.956673562,1.751407597,2.521054003,"BEFI1",2.5,"Unfamiliar_BEFI","BEFI","Unfamiliar","C","xfostered",26,3,8.3,"10/28/21",15,"R",1.28,"x",-0.516,0.0747,0.000540003,NA,"Good","N","N","Inverted",0.520846154,0.335384615,0.484153846,0.320846154,0.135384615,0.284153846,0.39,0.000717549,"Y",0.144767442,"Field L","Field L","Broad",4.08,2.8736,2.712643678,6.59368476688915,-0.888789629106018
"C4_FL_TRIAL7_B",1,"C4","FL",7,"B","C4",1,6.346666667,0.9258201,2.385032694,2.413124408,"BEFI1",2.5,"Unfamiliar_BEFI","BEFI","Unfamiliar","C","xfostered",26,3,8.3,"10/28/21",15,"R",1.28,"x",0.5016,0.04,0.000240046,NA,"Duplicate","N","N","Trough before peak",0.409461538,0.243923077,0.345,0.209461538,0.043923077,0.145,0.01,0.000724715,"Y",0.079744817,"Field L","Field L","Narrow",5.346666667,4.98915555555555,3.068965517,4.76369401515466,-1.4586831758056
"C4_FL_TRIAL8_A",1,"C4","FL",8,"A","C4",2.214285714,4.342857143,1.368804724,1.4281318,0.877493018,"BEFI1",2.5,"Unfamiliar_BEFI","BEFI","Unfamiliar","C","xfostered",26,3,8.3,"10/28/21",15,"R",1.38,"ok",-0.4688,0.0677,0.0011,NA,"Bad","N","N","Low S:N",0.302461538,0.355461538,0.329846154,0.102461538,0.155461538,0.129846154,0.33,0.016784084,"Y",0.144411263,"Field L","Field L","Broad",2.128571429,5.7234693877551,2.677339902,2.51377733006517,0.382409006022789
"C4_FL_TRIAL9_A",1,"C4","FL",9,"A","C4",6.428571429,23.08571429,5.570724103,2.936994053,2.638376825,"BEFI1",2.5,"Unfamiliar_BEFI","BEFI","Unfamiliar","C","xfostered",26,3,8.3,"10/28/21",15,"R",1.43,"x",-0.521,0.0849,0.000664,NA,"Good","N","N","Inverted, reclassified",0.720538462,0.51,0.635384615,0.520538462,0.31,0.435384615,0.14,0.00109394,"Y",0.162955854,"Field L","Field L","Broad",16.657142861,39.6424489795918,11.125615766,47.7689157659097,-1.18328971377339
"C4_NCM_TRIAL5_A",1,"C4","NCM",5,"A","C4",2.133333333,4.453333333,2.030716505,1.49564447,0.937545725,"BEFI1",2.5,"Unfamiliar_BEFI","BEFI","Unfamiliar","C","xfostered",26,3,8.3,"10/28/21",15,"R",1.12,"ok",0.3306,-0.1224,0.00126,NA,"Good","N","N","Fat shape",0.428923077,0.256307692,0.349230769,0.228923077,0.056307692,0.149230769,0.06,0.005371094,"Y",0.370235935,"Broad","Broad","NCM",2.32,6.11093333333333,3.485057471,3.26491742650995,0.760977825607918
"C4_NCM_TRIAL6_A",1,"C4","NCM",6,"A","C4",1.769230769,4.215384615,1.300887271,1.537230277,1.248990707,"BEFI1",2.5,"Unfamiliar_BEFI","BEFI","Unfamiliar","C","xfostered",26,3,8.3,"10/28/21",15,"R",1.18,"ok",-0.316,0.01396,0.00126,NA,"Bad","N","N","Inverted and fat",0.49625,0.27825,0.363083333,0.29625,0.07825,0.163083333,0.055,0.003323737,"Y",0.044177215,"Broad","Broad","NCM",2.446153846,3.82863905325444,2.983908046,4.96517901975352,0.362681220333721
"C4_NCM_TRIAL6_B",1,"C4","NCM",6,"B","C4",1.461538462,5.015384615,1.330124344,1.332820414,2.223347579,"BEFI1",2.5,"Unfamiliar_BEFI","BEFI","Unfamiliar","C","xfostered",26,3,8.3,"10/28/21",15,"R",1.18,"ok",0.3413,-0.0738,3e-04,NA,"Good","N","N","",0.33925,0.336916667,0.269416667,0.13925,0.136916667,0.069416667,0.055,0.001650813,"Y",0.216232054,"NS1","Narrow","NCM",3.553846153,2.6101775147929,3.908045977,9.27731536582825,0.205462799768763
"C4_NCM_TRIAL7_A",1,"C4","NCM",7,"A","C4",0.733333333,2.613333333,1.032795559,1.281665583,1.753365589,"BEFI1",2.5,"Unfamiliar_BEFI","BEFI","Unfamiliar","C","xfostered",26,3,8.3,"10/28/21",15,"R",1.25,"x",-0.33724,0,0.001321008,NA,"Bad","N","N","Inverted with fat shape",0.4,0.270846154,0.254923077,0.2,0.070846154,0.054923077,0.05,0.000934424,"Y",0,"Broad","Broad","NCM",1.88,1.2416,1.51954023,3.37494517106922,-0.335527601444603
"C4_NCM_TRIAL7_B",1,"C4","NCM",7,"B","C4",2.333333333,9.253333333,1.345185418,4.448734437,1.566545624,"BEFI1",2.5,"Unfamiliar_BEFI","BEFI","Unfamiliar","C","xfostered",26,3,8.3,"10/28/21",15,"R",1.25,"x",0.37,-0.1276,3e-04,NA,"Good","N","N","",0.344384615,0.183307692,0.269076923,0.144384615,-0.016692308,0.069076923,0.155,0.00109394,"Y",0.344864865,"NS1","Narrow","NCM",6.92,19.5562666666667,4.186206897,10.2577566398597,-1.00134871734406
"C4_NCM_TRIAL8_A",1,"C4","NCM",8,"A","C4",2.857142857,6.085714286,2.282277636,2.236362824,1.050007575,"BEFI1",2.5,"Unfamiliar_BEFI","BEFI","Unfamiliar","C","xfostered",26,3,8.3,"10/28/21",15,"R",1.35,"ok",0.2288,-0.0119,0.0012,NA,"Bad","N","N","Low S:N",0.353461538,0.205153846,0.331769231,0.153461538,0.005153846,0.131769231,0.25,0.005729983,"Y",0.05201049,"Broad","Broad","NCM",3.228571429,9.45632653061224,1.591133005,2.60758572180519,-0.942867981885108
"C4_NCM_TRIAL9_A",1,"C4","NCM",9,"A","C4",2.571428571,12.48571429,2.408775166,2.359549221,2.831145961,"BEFI1",2.5,"Unfamiliar_BEFI","BEFI","Unfamiliar","C","xfostered",26,3,8.3,"10/28/21",15,"R",1.4,"x",0.2168,0.07559,3e-04,NA,"Good","N","N","",0.425230769,0.294076923,0.383,0.225230769,0.094076923,0.183,0.15,0.00109394,"Y",0.348662362,"NS1","Narrow","NCM",9.914285719,12.1412244897959,8.307881769,11.6939806842983,-0.658074877608165
"C4_NCM_TRIAL9_B",1,"C4","NCM",9,"B","C4",3.571428571,6.714285714,4.127101529,2.25281265,0.751939114,"BEFI1",2.5,"Unfamiliar_BEFI","BEFI","Unfamiliar","C","xfostered",26,3,8.3,"10/28/21",15,"R",1.4,"x",-0.2208,2e-04,0.00132,NA,"Bad","N","N","Inverted and fat",0.328307692,0.223769231,0.269769231,0.128307692,0.023769231,0.069769231,0.105,0.024536133,"Y",0.000905797,"Broad","Broad","NCM",3.142857143,17.6881632653061,2.98275862,7.99723968052998,-0.0631792010164048
"D1_FL_TRIAL1_A",2,"D1","FL",1,"A","D1",2.6,3.813333333,1.352246808,1.29937714,0.573818921,"BEFI1",2.5,"Unfamiliar_BEFI","BEFI","Unfamiliar","D","normal",21,1,12.8,"12/18/21",15,"L",1.2,"bad",-1.158,0.311,0.000179999,NA,"Good","N","N","Inverted but beautiful",0.276357143,0.263,0.2775,0.076357143,0.063,0.0775,0.105,0.038011144,"Y",0.268566494,"Field L","Field L","Narrow",1.213333333,4.39182222222222,2.786274509,4.60881968471513,1.04859005704274
"D1_FL_TRIAL2_A",2,"D1","FL",2,"A","D1",2.4,6.32,1.352246808,2.75971013,1.34767218,"BEFI1",2.5,"Unfamiliar_BEFI","BEFI","Unfamiliar","D","normal",21,1,12.8,"12/18/21",15,"L",1.25,"x",-1.018,0.065,0.00126,NA,"Good","N","N","",0.458642857,0.301428571,0.468285714,0.258642857,0.101428571,0.268285714,0.095,0.000724715,"Y",0.063850688,"Field L","Field L","Broad",3.92,8.48426666666667,3.633333333,7.96284505696832,-0.141371664511577
"D1_FL_TRIAL2_B",2,"D1","FL",2,"B","D1",0.866666667,3.2,0.915475416,1.563877964,1.358380325,"BEFI1",2.5,"Unfamiliar_BEFI","BEFI","Unfamiliar","D","normal",21,1,12.8,"12/18/21",15,"L",1.25,"ok",0.918,-0.041,0.0012,NA,"Duplicate","N","N","",0.323785714,0.181357143,0.336785714,0.123785714,-0.018642857,0.136785714,0.175,0.001773937,"Y",0.044662309,"Field L","Field L","Broad",2.333333333,2.95822222222222,2.043137255,19.8951403329721,-0.121407769281765
"D1_FL_TRIAL3_A",2,"D1","FL",3,"A","D1",4.066666667,6.24,1.709915063,1.591405488,0.871944551,"BEFI1",2.5,"Unfamiliar_BEFI","BEFI","Unfamiliar","D","normal",21,1,12.8,"12/18/21",15,"L",1.31,"ok?",-0.807,0.043,0.00126,NA,"Bad","N","N","Double peaked",0.386857143,0.253428571,0.348642857,0.186857143,0.053428571,0.148642857,0.1,0.023004097,"Y",0.053283767,"Field L","Field L","Broad",2.173333333,6.13795555555556,2.098039215,15.6429834655122,-0.0322665659059383
"D1_FL_TRIAL3_B",2,"D1","FL",3,"B","D1",1.8,4.24,1.264911064,1.424680415,1.1238814,"BEFI1",2.5,"Unfamiliar_BEFI","BEFI","Unfamiliar","D","normal",21,1,12.8,"12/18/21",15,"L",1.31,"x",0.789,-0.077,0.00042,NA,"Good","N","Y","Trough before peak",0.391357143,0.196571429,0.365285714,0.191357143,-0.003428571,0.165285714,0.08,0.002854355,"Y",0.097591888,"Field L","Field L","Broad",2.44,4.62506666666667,1.798039215,7.69998462073449,-0.36571614019273
"D1_FL_TRIAL4_A",2,"D1","FL",4,"A","D1",3.266666667,3.52,2.814926202,1.353936061,0.078649691,"BEFI1",2.5,"Unfamiliar_BEFI","BEFI","Unfamiliar","D","normal",21,1,12.8,"12/18/21",15,"L",1.37,"x",-1.304,0.482,0.000479999,NA,"Good","N","N","",0.282357143,0.196,0.264071429,0.082357143,-0.004,0.064071429,0.17,0.550774111,"N",0.369631902,"Field L","Field L","Broad",0.253333333,10.2904888888889,1.403921569,3.45253364104534,0.620738662008232
"D1_FL_TRIAL4_B",2,"D1","FL",4,"B","D1",1.466666667,3.333333333,1.597617273,1.288779415,1.498621618,"BEFI1",2.5,"Unfamiliar_BEFI","BEFI","Unfamiliar","D","normal",21,1,12.8,"12/18/21",15,"L",1.37,"bad",-1.213,0.259,0.00018,NA,"Bad","N","N","",0.451071429,0.277357143,0.446,0.251071429,0.077357143,0.246,0.05,0.001634576,"Y",0.213520198,"Field L","Field L","Narrow",1.866666666,1.71022222222222,0.956862745,2.87910803551866,-0.849382177656465
"D1_FL_TRIAL5_A",2,"D1","FL",5,"A","D1",3.666666667,5.973333333,1.397276262,1.962311562,0.859246961,"BEFI1",2.5,"Unfamiliar_BEFI","BEFI","Unfamiliar","D","normal",21,1,12.8,"12/18/21",15,"L",1.37,"x",-1.029,0.403,0.00036,NA,"Good","N","N","",0.310928571,0.330857143,0.241,0.110928571,0.130857143,0.041,0.325,0.014497205,"Y",0.391642371,"Field L","Field L","Narrow",2.306666666,7.08728888888889,2.860784314,8.58206074790845,0.279966773449614
"D1_FL_TRIAL7_A",2,"D1","FL",7,"A","D1",5.4,8.24,6.219784103,6.315151848,2.104861703,"BEFI1",2.5,"Unfamiliar_BEFI","BEFI","Unfamiliar","D","normal",21,1,12.8,"12/18/21",15,"R",1.37,"x",-0.5426,0.0215,0.00126,NA,"Good","N","N","",0.426,0.154230769,0.382615385,0.226,-0.045769231,0.182615385,0.13,0.002857948,"Y",0.039624032,"Field L","Field L","Broad",2.84,6.58773333333333,3.241176471,15.3789158018096,0.171192030361264
"D1_FL_TRIAL8_A",2,"D1","FL",8,"A","D1",0.857142857,1.057142857,0.864437822,0.762298433,0.191318803,"BEFI1",2.5,"Unfamiliar_BEFI","BEFI","Unfamiliar","D","normal",21,1,12.8,"12/18/21",15,"R",1.42,"ok",-0.979,0.169,6e-04,NA,"Bad","N","N","",0.168692308,0.200538462,0.153384615,-0.031307692,0.000538462,-0.046615385,0.355,0.194568368,"N",0.172625128,"Field L","Field L","Broad",0.2,1.10285714285714,1.458823529,1.97160322909407,1.43585438125574
"D1_FL_TRIAL8_B",2,"D1","FL",8,"B","D1",0.5,1.228571429,0.518874522,0.837053965,0.810372367,"BEFI1",2.5,"Unfamiliar_BEFI","BEFI","Unfamiliar","D","normal",21,1,12.8,"12/18/21",15,"R",1.42,"ok",0.851,-0.089,0.001259559,NA,"Good","N","N","",0.241846154,0.145769231,0.243230769,0.041846154,-0.054230769,0.043230769,0.08,0.013970055,"Y",0.104582844,"Field L","Field L","Broad",0.728571429,0.814897959183673,1.084313726,1.15973087269535,0.506317296384758
"D1_NCM_TRIAL1_A",2,"D1","NCM",1,"A","D1",3.666666667,5.173333333,2.126924898,1.530390551,0.817266515,"BEFI1",2.5,"Unfamiliar_BEFI","BEFI","Unfamiliar","D","normal",21,1,12.8,"12/18/21",15,"L",1.58,"x",0.4663,-0.0974,3e-04,NA,"Good","N","N","",0.419071429,0.373214286,0.257928571,0.219071429,0.173214286,0.057928571,NA,0.012400239,"Y",0.208878404,"NS1","Narrow","NCM",1.506666666,3.59928888888889,0.129411765,2.82638985012978,-1.08663782365222
"D1_NCM_TRIAL1_B",2,"D1","NCM",1,"B","D1",0.333333333,1.733333333,0.6172134,0.964118151,1.307258133,"BEFI1",2.5,"Unfamiliar_BEFI","BEFI","Unfamiliar","D","normal",21,1,12.8,"12/18/21",15,"L",1.58,"ok?",-0.4399,3e-04,0.0018578,NA,"Bad","N","N","Inverted and fat",0.313214286,0.340928571,0.487785714,0.113214286,0.140928571,0.287785714,NA,0.001940812,"Y",0.000681973,"Broad","Broad","NCM",1.4,1.152,0.74509804,1.02164552091449,-0.888406905390333
"D1_NCM_TRIAL2_A",2,"D1","NCM",2,"A","D1",3.6,8.08,2.164651077,2.128446784,1.994104162,"BEFI1",2.5,"Unfamiliar_BEFI","BEFI","Unfamiliar","D","normal",21,1,12.8,"12/18/21",15,"L",1.68,"x",0.37,-0.1172,0.00072,NA,"Good","N","N","",0.481214286,0.348428571,0.411714286,0.281214286,0.148428571,0.211714286,NA,0.000881237,"Y",0.316756757,"Broad","Broad","NCM",4.48,5.28426666666667,1.247058824,13.6977854659645,-1.48407625798565
"D1_NCM_TRIAL3_A",2,"D1","NCM",3,"A","D1",1.8,2.426666667,1.567527626,1.074022257,0.400834005,"BEFI1",2.5,"Unfamiliar_BEFI","BEFI","Unfamiliar","D","normal",21,1,12.8,"12/18/21",15,"L",1.78,"ok",0.4129,-0.0572,0.00126,NA,"Bad","N","N","",0.207428571,0.260357143,0.173142857,0.007428571,0.060357143,-0.026857143,0.29,0.042504909,"Y",0.138532332,"Broad","Broad","NCM",0.626666667,2.50595555555556,0.2,3.79079584772443,-0.340063826339864
"D1_NCM_TRIAL4_A",2,"D1","NCM",4,"A","D1",1.8,3.546666667,1.740279124,1.668988858,1.084864538,"BEFI1",2.5,"Unfamiliar_BEFI","BEFI","Unfamiliar","D","normal",21,1,12.8,"12/18/21",15,"L",1.88,"ok",0.4125,-0.0352,0.00029996,NA,"Bad","N","N","",0.253857143,0.193285714,0.243785714,0.053857143,-0.006714286,0.043785714,0.175,0.004067941,"Y",0.085333333,"NS1","Narrow","NCM",1.746666667,2.78115555555556,0.980392157,1.5200307574722,-0.738958837072714
"D1_NCM_TRIAL5_A",2,"D1","NCM",5,"A","D1",1.933333333,4.506666667,2.282438128,1.985471037,0.81327215,"BEFI1",2.5,"Unfamiliar_BEFI","BEFI","Unfamiliar","D","normal",21,1,12.8,"12/18/21",15,"L",1.88,"x",0.3144,-0.0592,0.00126,NA,"Bad","N","N","Low S:N",0.442357143,0.395785714,0.385428571,0.242357143,0.195785714,0.185428571,0.13,0.012347279,"Y",0.188295165,"Broad","Broad","NCM",2.573333334,9.91395555555555,1.227450981,7.1806766637699,-0.65103931206207
"D1_NCM_TRIAL7_A",2,"D1","NCM",7,"A","D1",2.666666667,3.666666667,1.966384161,1.723562203,0.997785158,"BEFI1",2.5,"Unfamiliar_BEFI","BEFI","Unfamiliar","D","normal",21,1,12.8,"12/18/21",15,"R",1.26,"x",0.4859,-0.0845,0.001078804,NA,"Bad","N","N","",0.4568,0.2534,0.5626,0.2568,0.0534,0.3626,0.185,0.21875,"N",0.173904095,"Broad","Broad","NCM",1,1.78666666666667,1.387254902,7.48397250976865,0.254373625852927
"D4_FL_TRIAL10_A",2,"D4","FL",10,"A","D4",2.875,6.048387098,2.356601669,2.602156886,0.876392836,"BF05",1.55,"Unfamiliar_BEFI","BEFI","Unfamiliar","D","normal",22,2,12.3,"12/19/21",15,"R",1.03,"x",-0.4997,0.0886,0.00126,NA,"Bad","N","N","Inverted; Lost spot after 461s (9 presentations/stimulus)",0.387857143,0.249857143,0.424857143,0.187857143,0.049857143,0.224857143,0.085,0.0546875,"N",0.177306384,"Field L","Field L","Broad",3.173387098,12.8204832287957,3.003267973,15.2647913125237,-0.0642012966061682
"D4_FL_TRIAL10_B",2,"D4","FL",10,"B","D4",0.5,4.193548387,0.534522484,1.33561076,3.075597272,"BF05",1.55,"Unfamiliar_BEFI","BEFI","Unfamiliar","D","normal",22,2,12.3,"12/19/21",15,"R",1.03,"ok",0.4431,-6e-04,0.00138,NA,"Duplicate","N","N","Inverted, Lost spot after 461s (9 presentations/stimulus)",0.385,0.255285714,0.355142857,0.185,0.055285714,0.155142857,0.05,0.014147404,"Y",0.001354096,"Field L","Field L","Broad",3.693548387,1.48829344413085,3.107843138,3.20549788548199,-0.540688612051069
"D4_FL_TRIAL11_A",2,"D4","FL",11,"A","D4",0.5,9.112903228,0.755928946,2.680942662,3.768970618,"BF05",1.55,"Unfamiliar_BEFI","BEFI","Unfamiliar","D","normal",22,2,12.3,"12/19/21",15,"R",1.15,"x",-0.5546,0.0737,0.000224,NA,"Bad","Y","N","Lost spot after436s (8 presentations/stimulus)",0.547714286,0.305857143,0.518142857,0.347714286,0.105857143,0.318142857,0.18,0.014147404,"Y",0.132888568,"Field L","Field L","Narrow",8.612903228,5.41805411910146,8.709558823,21.7604752322587,0.0370803664774565
"D4_FL_TRIAL2_A",2,"D4","FL",2,"A","D4",2.333333333,12.12903226,1.951800146,2.97854176,2.783047074,"BF05",1.55,"Unfamiliar_BEFI","BEFI","Unfamiliar","D","normal",22,2,12.3,"12/19/21",15,"L",1.07,"x",-0.905,0.085,0.000311,NA,"Good","N","N","Inverted",0.379928571,0.279714286,0.424071429,0.179928571,0.079714286,0.224071429,0.025,6.1e-05,"Y",0.093922652,"Field L","Field L","Narrow",9.795698927,12.3519482038584,12.752941177,20.5200461249338,1.03158227496238
"D4_FL_TRIAL2_B",2,"D4","FL",2,"B","D4",0.733333333,10.19354839,0.798808637,2.739359051,3.262059548,"BF05",1.55,"Unfamiliar_BEFI","BEFI","Unfamiliar","D","normal",22,2,12.3,"12/19/21",15,"L",1.07,"x",0.805,-0.4,0.00018,NA,"Good","N","Y","trough before peak",0.343214286,0.228214286,0.362714286,0.143214286,0.028214286,0.162714286,0.08,6.1e-05,"Y",0.49689441,"Field L","Field L","Narrow",9.460215057,8.35636027995128,9.27843137,16.8616916594682,-0.0723984279219959
"D4_FL_TRIAL3_A",2,"D4","FL",3,"A","D4",3.866666667,31.52688172,2.386469798,7.523282002,3.409483818,"BF05",1.55,"Unfamiliar_BEFI","BEFI","Unfamiliar","D","normal",22,2,12.3,"12/19/21",15,"L",1.12,"x",-0.903,0.392,0.00024,NA,"Good","N","N","Inverted",0.631071429,0.431928571,0.586071429,0.431071429,0.231928571,0.386071429,0.045,6.1e-05,"Y",0.434108527,"Field L","Field L","Narrow",27.660215053,65.3047335038778,28.939215683,46.8493041199048,0.241542355680334
"D4_FL_TRIAL3_B",2,"D4","FL",3,"B","D4",1.533333333,13.33333334,1.597617273,2.135121395,5.424334314,"BF05",1.55,"Unfamiliar_BEFI","BEFI","Unfamiliar","D","normal",22,2,12.3,"12/19/21",15,"L",1.12,"x",0.857,-0.15,0.00024,NA,"Duplicate","N","Y","Trough before peak; if firing rate doesn't fit with narrows, than the trough is actually the thing after the peak and it's a broad unit",0.512785714,0.394642857,0.5475,0.312785714,0.194642857,0.3475,0.115,0.000724715,"Y",0.175029172,"Field L","Field L","Narrow",11.800000007,4.85927159288907,18.858823527,17.4378546697942,2.98977064302973
"D4_FL_TRIAL4_A",2,"D4","FL",4,"A","D4",1.066666667,5.247311828,1.099783528,1.669365042,2.34101406,"BF05",1.55,"Unfamiliar_BEFI","BEFI","Unfamiliar","D","normal",22,2,12.3,"12/19/21",15,"L",1.17,"ok",-0.917,0.467,0.000419993,NA,"Good","N","N","",0.347,0.3325,0.364357143,0.147,0.1325,0.164357143,0.095,0.000712206,"Y",0.509269357,"Field L","Field L","Broad",4.180645161,3.22522372509491,8.929411763,8.53723183487271,2.76924782154247
"D4_FL_TRIAL4_B",2,"D4","FL",4,"B","D4",0.666666667,4.64516129,0.723746864,1.526730267,2.680126234,"BF05",1.55,"Unfamiliar_BEFI","BEFI","Unfamiliar","D","normal",22,2,12.3,"12/19/21",15,"L",1.17,"ok",0.838,-0.051,0.00066,NA,"Good","N","N","",0.390928571,0.345714286,0.414285714,0.190928571,0.145714286,0.214285714,0.02,0.000721126,"Y",0.060859189,"Field L","Field L","Broad",3.978494623,2.23429298174378,6.852941177,10.5782006949153,1.60608084183108
"D4_FL_TRIAL6_A",2,"D4","FL",6,"A","D4",1.142857143,3.456221198,1.292412345,2.002274267,1.570965453,"BF05",1.55,"Unfamiliar_BEFI","BEFI","Unfamiliar","D","normal",22,2,12.3,"12/19/21",15,"L",1.27,"x",0.501,-0.0058,0.00054,NA,"Bad","N","N","",0.245230769,0.350923077,0.295538462,0.045230769,0.150923077,0.095538462,0.105,0.001351754,"Y",0.011576846,"Field L","Field L","Broad",2.313364055,2.39028223112678,4.617647058,7.14832756129896,1.49218706353243
"D4_FL_TRIAL6_B",2,"D4","FL",6,"B","D4",0.785714286,2.488479263,0.892582375,1.405689753,1.14278625,"BF05",1.55,"Unfamiliar_BEFI","BEFI","Unfamiliar","D","normal",22,2,12.3,"12/19/21",15,"L",1.27,"ok",-0.5186,0.0384,0.00024,NA,"Bad","N","N","",0.202923077,0.318076923,0.249846154,0.002923077,0.118076923,0.049846154,0.225,0.005670395,"Y",0.074045507,"Field L","Field L","Narrow",1.702764977,2.24545541454473,4.192156863,6.43181852808446,1.69017475683767
"D4_FL_TRIAL7_A",2,"D4","FL",7,"A","D4",1.733333333,3.655913979,0.961150105,2.020655441,0.904360133,"BF05",1.55,"Unfamiliar_BEFI","BEFI","Unfamiliar","D","normal",22,2,12.3,"12/19/21",15,"L",1.32,"ok",-0.5699,0.0601,0.001147,NA,"Duplicate","N","N","",0.238785714,0.307571429,0.246357143,0.038785714,0.107571429,0.046357143,0.065,0.004082921,"Y",0.105457098,"Field L","Field L","Broad",1.922580646,4.5296982309373,3.743137255,8.48678969624123,1.00922331103353
"D4_FL_TRIAL7_B",2,"D4","FL",7,"B","D4",0.866666667,2.795698925,0.833809388,1.647854787,1.390824958,"BF05",1.55,"Unfamiliar_BEFI","BEFI","Unfamiliar","D","normal",22,2,12.3,"12/19/21",15,"L",1.32,"x",0.5548,-0.0067,0.001259,NA,"Good","N","N","",0.2015,0.355142857,0.232214286,0.0015,0.155142857,0.032214286,0.145,0.001078475,"Y",0.012076424,"Field L","Field L","Broad",1.929032258,2.00765868886069,3.584313726,27.5187850820109,0.609251037119876
"D4_FL_TRIAL8_A",2,"D4","FL",8,"A","D4",1.642857143,2.67281106,2.560262693,1.694835014,0.526997592,"BF05",1.55,"Unfamiliar_BEFI","BEFI","Unfamiliar","D","normal",22,2,12.3,"12/19/21",15,"L",1.37,"x",0.5319,-0.0054,0.0012588,NA,"Good","N","N","",0.264769231,0.385923077,0.306692308,0.064769231,0.185923077,0.106692308,0.06,0.080427843,"N",0.010152284,"Field L","Field L","Broad",1.029953917,4.17206247776708,3.190196078,4.24289119546394,1.48938360487662
"D4_FL_TRIAL8_B",2,"D4","FL",8,"B","D4",1.857142857,3.087557604,1.350620533,0.985886848,0.706157818,"BF05",1.55,"Unfamiliar_BEFI","BEFI","Unfamiliar","D","normal",22,2,12.3,"12/19/21",15,"L",1.37,"x",-0.5499,0.0467,0.000839999,NA,"Good","N","N","Inverted",0.279846154,0.220615385,0.268538462,0.079846154,0.020615385,0.068538462,0.07,0.038252914,"Y",0.084924532,"Field L","Field L","Broad",1.230414747,3.00458705850989,2.027450981,3.7959015762147,0.611276924132096
"D4_FL_TRIAL9_A",2,"D4","FL",9,"A","D4",1.625,10.32258065,1.302470181,1.950784378,3.325143838,"BF05",1.55,"Unfamiliar_BEFI","BEFI","Unfamiliar","D","normal",22,2,12.3,"12/19/21",15,"R",0.98,"x",-0.706,0.102,0.00018,NA,"Bad","Y","N","Inverted, Lost spot after 513s (10+ presentations/stimulus)",0.725571429,0.271142857,0.696857143,0.525571429,0.071142857,0.496857143,0.04,0.013793701,"Y",0.144475921,"Field L","Field L","Narrow",8.69758065,6.58843327786733,9.696078437,3.47923875365731,0.629379470411388
"D4_FL_TRIAL9_B",2,"D4","FL",9,"B","D4",1,5.806451613,0.9258201,1.33561076,3.625184571,"BF05",1.55,"Unfamiliar_BEFI","BEFI","Unfamiliar","D","normal",22,2,12.3,"12/19/21",15,"R",0.98,"x",0.5282,-1e-04,0.00132,NA,"Bad","Y","N","Lost spot after 513s (10+ presentations/stimulus)",0.573,0.364571429,0.514571429,0.373,0.164571429,0.314571429,0.075,0.014147404,"Y",0.000189322,"Field L","Field L","Broad",4.806451613,1.82700312202601,5.823529412,6.17320261617647,0.719173361136981
"D4_NCM_TRIAL10_A",2,"D4","NCM",10,"A","D4",6.375,12.0967742,13.26582613,2.880092165,0.478104472,"BF05",1.55,"Unfamiliar_BEFI","BEFI","Unfamiliar","D","normal",22,2,12.3,"12/19/21",15,"R",1.02,"x",0.3425,-0.0763,9e-04,NA,"Bad","Y","N","Lost spot after 461s (9 presentations/stimulus), reclassified so may have too high spike rate for broad neuron, also COULD be movement spikes?",0.775857143,0.528857143,0.699714286,0.575857143,0.328857143,0.499714286,0.37,0.1953125,"N",0.222773723,"Broad","Broad","NCM",5.7217742,145.476310487227,-0.650735295,226.749662103538,-0.660597841376719
"D4_NCM_TRIAL11_A",2,"D4","NCM",11,"A","D4",1.25,12.17741936,1.488047618,1.633508929,4.435469846,"BF05",1.55,"Unfamiliar_BEFI","BEFI","Unfamiliar","D","normal",22,2,12.3,"12/19/21",15,"R",1.27,"x",0.3087,-0.0697,0.00048,NA,"Bad","Y","N","Lost spot after436s (8 presentations/stimulus)",0.446714286,0.632857143,0.463428571,0.246714286,0.432857143,0.263428571,0.29,0.0078125,"Y",0.225785552,"Broad","Broad","NCM",10.92741936,5.84488813579832,15.20955883,3.68110672630785,2.77482521578917
"D4_NCM_TRIAL2_A",2,"D4","NCM",2,"A","D4",1.2,4.215053764,1.264911064,1.773006166,1.244965367,"BF05",1.55,"Unfamiliar_BEFI","BEFI","Unfamiliar","D","normal",22,2,12.3,"12/19/21",15,"L",1.17,"x",0.3394,-0.0388,0.00119897,NA,"Good","N","N","",0.387857143,0.2755,0.340142857,0.187857143,0.0755,0.140142857,0.15,0.001957268,"Y",0.114319387,"Broad","Broad","NCM",3.015053764,5.76924962429645,3.841176471,8.02108420051829,0.444925365048936
"D4_NCM_TRIAL2_B",2,"D4","NCM",2,"B","D4",0.866666667,2.967741936,1.125462868,1.49921936,0.938433133,"BF05",1.55,"Unfamiliar_BEFI","BEFI","Unfamiliar","D","normal",22,2,12.3,"12/19/21",15,"L",1.17,"x",-0.33461,0.00035,0.00132,NA,"Duplicate","N","N","Inverted",0.318571429,0.177857143,0.287285714,0.118571429,-0.022142857,0.087285714,0.11,0.005846248,"Y",0.001045994,"Broad","Broad","NCM",2.101075269,4.89724129892242,3.38627451,8.72893502732674,0.696327350460541
"D4_NCM_TRIAL3_A",2,"D4","NCM",3,"A","D4",2.933333333,5.333333333,2.865226659,2.357478057,0.712376978,"BF05",1.55,"Unfamiliar_BEFI","BEFI","Unfamiliar","D","normal",22,2,12.3,"12/19/21",15,"L",1.27,"x",0.3503,-0.0421,0.001259953,NA,"Good","N","N","",0.327214286,0.231142857,0.337714286,0.127214286,0.031142857,0.137714286,0.03,0.024809607,"Y",0.120182701,"Broad","Broad","NCM",2.4,11.4501283389132,3.829411765,6.63162629710842,0.672306116081639
"D4_NCM_TRIAL3_B",2,"D4","NCM",3,"B","D4",1.133333333,4.043010753,1.846489591,1.766285967,1.0416884,"BF05",1.55,"Unfamiliar_BEFI","BEFI","Unfamiliar","D","normal",22,2,12.3,"12/19/21",15,"L",1.27,"x",-0.3598,1e-04,0.0013813,NA,"Good","N","N","Inverted",0.4435,0.214,0.454571429,0.2435,0.014,0.254571429,0.3,0.006968146,"Y",0.000277932,"Broad","Broad","NCM",2.90967742,7.68826916398985,3.296078431,4.51170319093324,0.221252825954273
"D4_NCM_TRIAL4_A",2,"D4","NCM",4,"A","D4",2.266666667,12.7311828,1.667618776,3.469732933,2.923547684,"BF05",1.55,"Unfamiliar_BEFI","BEFI","Unfamiliar","D","normal",22,2,12.3,"12/19/21",15,"L",1.32,"x",0.4031,-0.1404,0.000299238,NA,"Good","N","N","",0.718571429,0.3285,0.6725,0.518571429,0.1285,0.4725,0.315,0.000724715,"Y",0.34830067,"NS1","Narrow","NCM",10.464516133,12.8800277486103,7.513725493,21.1866051625489,-1.01112252991401
"D4_NCM_TRIAL6_A",2,"D4","NCM",6,"A","D4",4.071428571,7.880184332,2.432608151,2.887229951,1.19374415,"BF05",1.55,"Unfamiliar_BEFI","BEFI","Unfamiliar","D","normal",22,2,12.3,"12/19/21",15,"L",1.52,"x",0.2295,-0.0444,0.00108,NA,"Good","N","N","",0.337923077,0.223615385,0.249307692,0.137923077,0.023615385,0.049307692,0.09,0.000854492,"Y",0.193464052,"Broad","Broad","NCM",3.808755761,10.3981662411781,4.941176471,5.66055363348005,0.565174212322385
"D4_NCM_TRIAL6_B",2,"D4","NCM",6,"B","D4",1.785714286,4.516129032,1.42389344,3.710486481,0.70817298,"BF05",1.55,"Unfamiliar_BEFI","BEFI","Unfamiliar","D","normal",22,2,12.3,"12/19/21",15,"L",1.52,"x",-0.2366,8e-04,0.00138,NA,"Duplicate","N","N","",0.331307692,0.168846154,0.279692308,0.131307692,-0.031153846,0.079692308,0.325,0.020263672,"Y",0.003381234,"Broad","Broad","NCM",2.730414746,14.8512869294028,3.37254902,5.12695116948258,0.287327539852901
"D4_NCM_TRIAL7_A",2,"D4","NCM",7,"A","D4",1.2,4.903225807,1.320173149,1.720814089,1.734888277,"BF05",1.55,"Unfamiliar_BEFI","BEFI","Unfamiliar","D","normal",22,2,12.3,"12/19/21",15,"L",1.62,"ok",0.29099,-0.0352,0.00126,NA,"Good","N","N","",0.447357143,0.331285714,0.444071429,0.247357143,0.131285714,0.244071429,0.21,0.000885492,"Y",0.120966356,"Broad","Broad","NCM",3.703225807,4.54529309817079,2.237254902,8.02565935649947,-0.826934773256609
"D4_NCM_TRIAL8_A",2,"D4","NCM",8,"A","D4",1.857142857,5.990783411,2.315736894,2.901058706,1.365445853,"BF05",1.55,"Unfamiliar_BEFI","BEFI","Unfamiliar","D","normal",22,2,12.3,"12/19/21",15,"L",1.72,"x",-0.2728,0,0.00138,NA,"Bad","N","N","Inverted and fat",0.502538462,0.303153846,0.555538462,0.302538462,0.103153846,0.355538462,0.04,0.000854492,"Y",0,"Broad","Broad","NCM",4.133640554,9.42394190279099,2.621568628,8.67161092166644,-0.710913101616901
"D4_NCM_TRIAL8_B",2,"D4","NCM",8,"B","D4",4.785714286,4.285714286,4.543441113,3.372421408,-0.08009789,"BF05",1.55,"Unfamiliar_BEFI","BEFI","Unfamiliar","D","normal",22,2,12.3,"12/19/21",15,"L",1.72,"x",0.2441,-0.0301,0.0012,NA,"Good","N","N","",0.253076923,0.151461538,0.286,0.053076923,-0.048538462,0.086,0.215,0.760864258,"N",0.123310119,"Broad","Broad","NCM",-0.5,38.3072320576442,1.941176471,7.16378315979469,0.724038809695727
"D4_NCM_TRIAL9_A",2,"D4","NCM",9,"A","D4",1,5.403225806,1.309307341,1.030961167,3.826679062,"BF05",1.55,"Unfamiliar_BEFI","BEFI","Unfamiliar","D","normal",22,2,12.3,"12/19/21",15,"R",0.92,"x",0.2925,-0.0923,0.00054,NA,"Bad","Y","N","Lost spot after 513s (10+ presentations/stimulus)",0.236571429,0.345,0.273428571,0.036571429,0.145,0.073428571,0.01,0.014147404,"Y",0.315555556,"Broad","Broad","NCM",4.403225806,1.46227887605112,8.54248366,5.96061343920454,3.03854657099755
"D5_FL_TRIAL10_A",1,"D5","FL",10,"A","D5",1.533333333,6.417910448,1.457329587,2.731791824,1.719112207,"BR90",1.34,"Unfamiliar_BEFI","BEFI","Unfamiliar","D","normal",23,3,12,"12/21/22",15,"R",1.41,"ok",-1.397,0.056,0.0009596,NA,"Good","N","N","",0.551692308,0.196076923,0.519,0.351692308,-0.003923077,0.319,0.03,0.000719336,"Y",0.040085898,"Field L","Field L","Broad",4.884577115,8.13147595658494,3.225108225,6.89318041236752,-0.856242611096939
"D5_FL_TRIAL11_A",1,"D5","FL",11,"A","D5",2,9.452736318,1.414213562,2.744383024,2.544861182,"BR90",1.34,"Unfamiliar_BEFI","BEFI","Unfamiliar","D","normal",23,3,12,"12/21/22",15,"R",1.46,"ok",-1.257,0.214,0.00018,NA,"Good","N","N","",0.293769231,0.198846154,0.247692308,0.093769231,-0.001153846,0.047692308,0.02,0.000724715,"Y",0.170246619,"Field L","Field L","Narrow",7.452736318,8.59768817283772,6.517171717,16.1909356159139,-0.37581799264312
"D5_FL_TRIAL12_A",1,"D5","FL",12,"A","D5",0.866666667,10.69651741,0.833809388,3.450712084,3.000601608,"BR90",1.34,"Unfamiliar_BEFI","BEFI","Unfamiliar","D","normal",23,3,12,"12/21/22",15,"R",1.51,"x",-1.548,0.486,0.000239999,NA,"Good","N","N","Inverted",0.550076923,0.327384615,0.496384615,0.350076923,0.127384615,0.296384615,0.01,0.000724715,"Y",0.313953488,"Field L","Field L","Narrow",9.829850743,10.8006178077441,10.143434343,16.8065462740983,0.119363745776456
"D5_FL_TRIAL12_B",1,"D5","FL",12,"B","D5",0.866666667,1.940298507,2.825057943,2.010379457,0.322350328,"BR90",1.34,"Unfamiliar_BEFI","BEFI","Unfamiliar","D","normal",23,3,12,"12/21/22",15,"R",1.51,"x",1.367,-0.147,0.001259,NA,"Bad","N","N","Might not be auditory",0.419615385,0.185230769,0.196384615,0.219615385,-0.014769231,-0.003615385,0.01,0.058707408,"N",0.107534748,"Field L","Field L","Broad",1.07363184,11.1016697606196,1.044444444,1.04191817152129,-0.016751428005185
"D5_FL_TRIAL13_A",1,"D5","FL",13,"A","D5",1.933333333,5.472636816,1.437590577,3.738443847,1.473541089,"BR90",1.34,"Unfamiliar_BEFI","BEFI","Unfamiliar","D","normal",23,3,12,"12/21/22",15,"R",1.56,"x",-1.401,0.113,0.00047999,NA,"Bad","Y","N","Drifts slightly out of spot after 200s",0.313583333,0.161083333,0.327333333,0.113583333,-0.038916667,0.127333333,0.025,0.000885492,"Y",0.080656674,"Field L","Field L","Broad",3.539303483,6.38273903687959,5.231601732,18.0808877324082,0.684299904851754
"D5_FL_TRIAL2_A",1,"D5","FL",2,"A","D5",6.666666667,9.253731342,3.518657753,2.789430909,0.712946171,"BR90",1.34,"Unfamiliar_BEFI","BEFI","Unfamiliar","D","normal",23,3,12,"12/21/22",15,"L",1.09,"x",-1.42,0.257,0.0012599,NA,"Good","N","N","Inverted",0.244384615,0.277307692,0.269230769,0.044384615,0.077307692,0.069230769,0.025,0.038088867,"Y",0.180985915,"Field L","Field L","Broad",2.587064675,13.5441201848001,2.82034632,10.369731635264,0.0954082209681563
"D5_FL_TRIAL2_B",1,"D5","FL",2,"B","D5",3.066666667,3.283582089,2.282438128,2.144421243,0.095624597,"BR90",1.34,"Unfamiliar_BEFI","BEFI","Unfamiliar","D","normal",23,3,12,"12/21/22",15,"L",1.09,"x",-2.002,0.799,0.000539997,NA,"Good","N","N","Inverted",0.454,0.343230769,0.378769231,0.254,0.143230769,0.178769231,0.385,0.571987011,"N",0.399100899,"Field L","Field L","Broad",0.216915422,5.41290166076117,1.162337663,4.83439684393896,0.590678436687148
"D5_FL_TRIAL3_A",1,"D5","FL",3,"A","D5",1.666666667,2.089552239,2.257263408,1.853907473,0.155138038,"BR90",1.34,"Unfamiliar_BEFI","BEFI","Unfamiliar","D","normal",23,3,12,"12/21/22",15,"L",1.14,"ok",1.116,-0.053,0.0012599,NA,"Good","N","N","Fat",0.297307692,0.157461538,0.182076923,0.097307692,-0.042538462,-0.017923077,0.055,0.314577718,"N",0.047491039,"Field L","Field L","Broad",0.422885572,7.46588450810389,0.175757576,3.13097030905151,-0.15183204829756
"D5_FL_TRIAL3_B",1,"D5","FL",3,"B","D5",1,2.089552239,1.069044968,1.062894975,0.811818718,"BR90",1.34,"Unfamiliar_BEFI","BEFI","Unfamiliar","D","normal",23,3,12,"12/21/22",15,"L",1.14,"bad",-1.134,0.186,0.0012,NA,"Bad","N","N","Inverted",0.291076923,0.227153846,0.270538462,0.091076923,0.027153846,0.070538462,0.045,0.013300125,"Y",0.164021164,"Field L","Field L","Broad",1.089552239,1.82258855015989,0.503030303,4.32222834352034,-0.473216394252013
"D5_FL_TRIAL4_A",1,"D5","FL",4,"A","D5",7.666666667,9.763681591,3.113995777,1.921375561,1.093213526,"BR90",1.34,"Unfamiliar_BEFI","BEFI","Unfamiliar","D","normal",23,3,12,"12/21/22",15,"L",1.24,"x",-1.488,1.066,0.00024,NA,"Good","N","N","Inverted, quite symmetrical",0.265181818,0.167545455,0.272727273,0.065181818,-0.032454545,0.072727273,0.03,0.013435416,"Y",0.716397849,"Field L","Field L","Narrow",2.097014924,4.39565233761699,4.510489506,26.7042235194276,0.865552464456339
"D5_FL_TRIAL4_B",1,"D5","FL",4,"B","D5",1.833333333,5.472636816,1.749458791,1.752564158,2.026854023,"BR90",1.34,"Unfamiliar_BEFI","BEFI","Unfamiliar","D","normal",23,3,12,"12/21/22",15,"L",1.24,"x",1.319,-0.434,0.00024,NA,"Good","N","Y","Trough before peak",0.193727273,0.243181818,0.180454545,-0.006272727,0.043181818,-0.019545455,0.015,0.003239921,"Y",0.329037149,"Field L","Field L","Narrow",3.639303483,3.42373332311012,3.745920746,7.9287332716734,0.0632866939123538
"D5_FL_TRIAL4_C",1,"D5","FL",4,"C","D5",2,6.032338309,1.59544807,1.812913007,1.590003561,"BR90",1.34,"Unfamiliar_BEFI","BEFI","Unfamiliar","D","normal",23,3,12,"12/21/22",15,"L",1.24,"x",-1.415,0.168,0.001019,NA,"Good","N","N","",0.334636364,0.226636364,0.361545455,0.134636364,0.026636364,0.161545455,0.065,0.004178034,"Y",0.118727915,"Field L","Field L","Broad",4.032338309,6.34112398236272,4.473193473,17.6734532018471,0.179923734060207
"D5_FL_TRIAL5_A",1,"D5","FL",5,"A","D5",1.933333333,5.572139303,1.486446706,2.374472719,1.656968161,"BR90",1.34,"Unfamiliar_BEFI","BEFI","Unfamiliar","D","normal",23,3,12,"12/21/22",15,"L",1.34,"x",-1.155,0.419,0.00053987,NA,"Good","N","N","Inverted",0.460153846,0.139846154,0.371846154,0.260153846,-0.060153846,0.171846154,0.035,0.000715765,"Y",0.362770563,"Field L","Field L","Broad",3.63880597,4.98947649538526,2.441558441,8.86458274344013,-0.643317587871506
"D5_FL_TRIAL6_A",1,"D5","FL",6,"A","D5",3,6.965174129,2.828427125,1.541485909,1.875943345,"BR90",1.34,"Unfamiliar_BEFI","BEFI","Unfamiliar","D","normal",23,3,12,"12/21/22",15,"L",1.39,"x",-1.596,0.532,0.00054,NA,"Bad","N","N","Inverted, Lost spot after 330s",0.26375,0.17375,0.26825,0.06375,-0.02625,0.06825,0.05,0.03125,"Y",0.333333333,"Field L","Field L","Broad",3.965174129,5.1642286078901,6.040404041,4.71645750941118,1.32039132613842
"D5_FL_TRIAL7_A",1,"D5","FL",7,"A","D5",3.466666667,8.109452736,2.29492193,2.969933169,1.412119723,"BR90",1.34,"Unfamiliar_BEFI","BEFI","Unfamiliar","D","normal",23,3,12,"12/21/22",15,"R",1.25,"x",-0.984,0.337,0.00054,NA,"Good","N","N","Inverted",0.462166667,0.29225,0.449166667,0.262166667,0.09225,0.249166667,0.08,0.001606449,"Y",0.342479675,"Field L","Field L","Broad",4.642786069,10.9656038228128,6.428571429,23.3587638896053,0.609618279614958
"D5_FL_TRIAL8_A",1,"D5","FL",8,"A","D5",1.866666667,4.228855721,2.948768912,2.268226496,1.068640161,"BR90",1.34,"Unfamiliar_BEFI","BEFI","Unfamiliar","D","normal",23,3,12,"12/21/22",15,"R",1.31,"x",-1.196,0.185,0.00125,NA,"Good","N","N","Inverted and fat",0.520307692,0.265384615,0.430461538,0.320307692,0.065384615,0.230461538,0.02,0.005856198,"Y",0.154682274,"Field L","Field L","Broad",2.362189054,5.42156283228056,1.648484849,2.4866605449136,-0.507585009047802
"D5_FL_TRIAL8_B",1,"D5","FL",8,"B","D5",0.866666667,2.885572139,1.187233679,2.08929839,0.820273177,"BR90",1.34,"Unfamiliar_BEFI","BEFI","Unfamiliar","D","normal",23,3,12,"12/21/22",15,"R",1.31,"ok",1.063,-0.065,0.00126,NA,"Duplicate","N","N","Fat",0.385538462,0.204538462,0.266307692,0.185538462,0.004538462,0.066307692,0.015,0.011290809,"Y",0.061147695,"Field L","Field L","Broad",2.018905472,6.01326105789219,1.73939394,2.39324150609668,-0.19280666886499
"D5_FL_TRIAL9_A",1,"D5","FL",9,"A","D5",4.222222222,11.94029851,2.166666667,3.209822862,2.261050393,"BR90",1.34,"Unfamiliar_BEFI","BEFI","Unfamiliar","D","normal",23,3,12,"12/21/22",15,"R",1.36,"x",-1.432,0.251,0.00108,NA,"Bad","N","N","Lost spot after 520s",0.5465,0.23175,0.485,0.3465,0.03175,0.285,0.035,0.00390625,"Y",0.17527933,"Field L","Field L","Broad",7.718076288,11.8384913538995,5.36969697,8.29913682334197,-1.0466321804446
"D5_FL_TRIAL9_B",1,"D5","FL",9,"B","D5",0.444444444,1.990049751,0.726483157,0.834353723,1.91325156,"BR90",1.34,"Unfamiliar_BEFI","BEFI","Unfamiliar","D","normal",23,3,12,"12/21/22",15,"R",1.36,"x",1.188,-0.003,0.00138,NA,"Bad","N","N","Fat, Lost spot after 520s",0.258875,0.17425,0.199,0.058875,-0.02575,-0.001,0.115,0.011997286,"Y",0.002525253,"Field L","Field L","Broad",1.545605307,0.700978248536598,1.56969697,1.81575757516727,0.030372319494784
"D5_NCM_TRIAL10_A",1,"D5","NCM",10,"A","D5",1.733333333,3.084577114,1.279880947,1.462019197,0.819197179,"BR90",1.34,"Unfamiliar_BEFI","BEFI","Unfamiliar","D","normal",23,3,12,"12/21/22",15,"R",1.3,"ok",0.675,-0.236,0.00048,NA,"Good","N","N","",0.239307692,0.140538462,0.215384615,0.039307692,-0.059461538,0.015384615,0.02,0.021355597,"Y",0.34962963,"Broad","Broad","NCM",1.351243781,2.7743036062505,2.341991342,5.64127358885752,0.683047731777651
"D5_NCM_TRIAL10_B",1,"D5","NCM",10,"B","D5",0.666666667,3.582089552,0.723746864,1.169796735,3.050823294,"BR90",1.34,"Unfamiliar_BEFI","BEFI","Unfamiliar","D","normal",23,3,12,"12/21/22",15,"R",1.3,"ok",-0.6335,0.0011,0.00132,NA,"Good","N","N","Inverted and fat",0.374538462,0.181076923,0.365461538,0.174538462,-0.018923077,0.165461538,0.095,0.000713984,"Y",0.001736385,"Broad","Broad","NCM",2.915422885,0.97006509736162,2.318181818,2.09153220498728,-0.68266183700469
"D5_NCM_TRIAL10_C",1,"D5","NCM",10,"C","D5",4.6,7.661691541,2.746426249,2.100691195,1.171493547,"BR90",1.34,"Unfamiliar_BEFI","BEFI","Unfamiliar","D","normal",23,3,12,"12/21/22",15,"R",1.3,"x",0.636,-0.222,0.00017999,NA,"Good","N","N","",0.360153846,0.135153846,0.341615385,0.160153846,-0.064846154,0.141615385,0.08,0.001616993,"Y",0.349056604,"NS1","Narrow","NCM",3.061691541,7.11890893872372,2.761904762,5.94685257115671,-0.165872774211483
"D5_NCM_TRIAL11_A",1,"D5","NCM",11,"A","D5",3,6.218905473,3.184785259,2.625863995,1.055955487,"BR90",1.34,"Unfamiliar_BEFI","BEFI","Unfamiliar","D","normal",23,3,12,"12/21/22",15,"R",1.4,"ok",0.828,-0.315,0.000179999,NA,"Good","N","N","",0.318153846,0.113615385,0.283538462,0.118153846,-0.086384615,0.083538462,0.14,0.003356934,"Y",0.380434783,"NS2","Narrow","NCM",3.218905473,9.73299670849922,3.747474746,5.95698397650154,0.266882872977987
"D5_NCM_TRIAL11_B",1,"D5","NCM",11,"B","D5",1.066666667,7.960199004,0.798808637,2.81592542,2.756295443,"BR90",1.34,"Unfamiliar_BEFI","BEFI","Unfamiliar","D","normal",23,3,12,"12/21/22",15,"R",1.4,"x",-0.709,0.107,0.00024,NA,"Good","N","Y","Trough before peak",0.760230769,0.228846154,0.742461538,0.560230769,0.028846154,0.542461538,0.01,0.000713984,"Y",0.150916784,"NS1","Narrow","NCM",6.893532337,6.37115516608753,5.731313132,4.31978777665047,-0.710902493334467
"D5_NCM_TRIAL12_A",1,"D5","NCM",12,"A","D5",5.266666667,18.55721393,3.305118685,4.191903439,2.900541061,"BR90",1.34,"Unfamiliar_BEFI","BEFI","Unfamiliar","D","normal",23,3,12,"12/21/22",15,"R",1.5,"x",0.788,-0.144,0.00017999,NA,"Good","N","N","",0.631846154,0.377461538,0.604230769,0.431846154,0.177461538,0.404230769,0.035,6.1e-05,"Y",0.182741117,"NS1","Narrow","NCM",13.290547263,21.3689423613017,13.711111113,13.2991572174892,0.142855484259889
"D5_NCM_TRIAL12_B",1,"D5","NCM",12,"B","D5",0.6,4.776119403,0.632455532,1.845304607,2.105163161,"BR90",1.34,"Unfamiliar_BEFI","BEFI","Unfamiliar","D","normal",23,3,12,"12/21/22",15,"R",1.5,"x",-0.733,0.001,0.00138,NA,"Good","N","N","Inverted",0.578538462,0.281153846,0.546692308,0.378538462,0.081153846,0.346692308,0.01,0.000721126,"Y",0.001364256,"Broad","Broad","NCM",4.176119403,3.90968144317346,4.195959596,3.5821079482433,0.0144971658784442
"D5_NCM_TRIAL13_A",1,"D5","NCM",13,"A","D5",3.266666667,5.572139303,4.495500396,3.78287094,0.960206912,"BR90",1.34,"Unfamiliar_BEFI","BEFI","Unfamiliar","D","normal",23,3,12,"12/21/22",15,"R",1.6,"x",0.747,-0.232,0.000239999,NA,"Bad","Y","N","Drifts from beginning to end",0.3315,0.123583333,0.255916667,0.1315,-0.076416667,0.055916667,0.12,0.013393605,"Y",0.310575636,"NS1","Narrow","NCM",2.305472636,7.52844335346603,2.095238095,8.25775379300688,-0.105826712643266
"D5_NCM_TRIAL13_B",1,"D5","NCM",13,"B","D5",1.066666667,5.074626865,1.533747356,2.678856501,1.568835875,"BR90",1.34,"Unfamiliar_BEFI","BEFI","Unfamiliar","D","normal",23,3,12,"12/21/22",15,"R",1.6,"x",-0.74,0.002,0.00132,NA,"Bad","Y","N","Inverted and fat, Drifts from beginning to end",0.480916667,0.385583333,0.437333333,0.280916667,0.185583333,0.237333333,0.01,0.001609959,"Y",0.002702703,"Broad","Broad","NCM",4.007960198,6.68445434312416,1.543290043,100.629734259119,-0.475839213198641
"D5_NCM_TRIAL2_A",1,"D5","NCM",2,"A","D5",2.8,6.119402985,1.934646516,2.603550339,1.256044751,"BR90",1.34,"Unfamiliar_BEFI","BEFI","Unfamiliar","D","normal",23,3,12,"12/21/22",15,"L",1.2,"x",0.5226,-0.0738,0.00126,NA,"Good","N","N","",0.288230769,0.258307692,0.289461538,0.088230769,0.058307692,0.089461538,0.02,0.000305176,"Y",0.141216992,"Broad","Broad","NCM",3.319402985,7.17314323928689,1.748917749,9.3516238445153,-0.772673789144412
"D5_NCM_TRIAL2_B",1,"D5","NCM",2,"B","D5",1.2,2.139303483,0.941123948,1.951474021,0.420994427,"BR90",1.34,"Unfamiliar_BEFI","BEFI","Unfamiliar","D","normal",23,3,12,"12/21/22",15,"L",1.2,"x",-0.5429,-1e-04,0.00139,NA,"Duplicate","N","N","Inverted and fat",0.411615385,0.203615385,0.290692308,0.211615385,0.003615385,0.090692308,0.015,0.221575006,"N",0.000184196,"Broad","Broad","NCM",0.939303483,4.93824806270894,0.551948053,3.46086561314212,-0.26731474466747
"D5_NCM_TRIAL3_A",1,"D5","NCM",3,"A","D5",3.533333333,6.616915423,1.995232413,2.340726721,1.099688811,"BR90",1.34,"Unfamiliar_BEFI","BEFI","Unfamiliar","D","normal",23,3,12,"12/21/22",15,"L",1.3,"x",0.759,-0.264,0.000239,NA,"Good","N","N","COULD USE THESE TWO UNITS FOR A FIGURE SHOWING A BROAD AND A NARROW",0.308384615,0.252538462,0.297615385,0.108384615,0.052538462,0.097615385,0.235,0.002854355,"Y",0.347826087,"NS1","Narrow","NCM",3.08358209,7.92713447908285,3.705050505,14.8498887866607,0.260435734831917
"D5_NCM_TRIAL3_B",1,"D5","NCM",3,"B","D5",5.266666667,9.751243781,2.520393015,2.49855425,1.521094117,"BR90",1.34,"Unfamiliar_BEFI","BEFI","Unfamiliar","D","normal",23,3,12,"12/21/22",15,"L",1.3,"x",0.796,-0.244,0.000628,NA,"Good","N","N","",0.442307692,0.310230769,0.440153846,0.242307692,0.110230769,0.240153846,0.04,0.000183105,"Y",0.306532663,"Broad","Broad","NCM",4.484577114,8.89643919575255,2.288888889,12.6468156348611,-0.94611735544446
"D5_NCM_TRIAL3_C",1,"D5","NCM",3,"C","D5",3.666666667,5.771144279,4.169046939,1.395190737,0.527069819,"BR90",1.34,"Unfamiliar_BEFI","BEFI","Unfamiliar","D","normal",23,3,12,"12/21/22",15,"L",1.3,"x",-0.6078,0.005,0.00149,NA,"Good","N","N","Inverted and fat",0.289923077,0.315769231,0.248461538,0.089923077,0.115769231,0.048461538,0.02,0.02154541,"Y",0.00822639,"Broad","Broad","NCM",2.104477612,16.0821266802161,1.448484848,9.82628711406198,-0.257755910177804
"D5_NCM_TRIAL4_A",1,"D5","NCM",4,"A","D5",1.357142857,6.183368869,1.33630621,3.355702233,1.715382228,"BR90",1.34,"Unfamiliar_BEFI","BEFI","Unfamiliar","D","normal",23,3,12,"12/21/22",15,"L",1.4,"ok",0.5738,-0.1171,0.0007786,NA,"Good","N","N","",0.266769231,0.214461538,0.225153846,0.066769231,0.014461538,0.025153846,0.11,0.001081556,"Y",0.204078076,"Broad","Broad","NCM",4.826226012,8.21568936760243,3.501010101,4.07858789930085,-0.755901375343724
"D5_NCM_TRIAL4_B",1,"D5","NCM",4,"B","D5",0.428571429,1.332622601,0.755928946,0.933860353,0.729160551,"BR90",1.34,"Unfamiliar_BEFI","BEFI","Unfamiliar","D","normal",23,3,12,"12/21/22",15,"L",1.4,"ok",-0.5647,0.0019,0.0013681,NA,"Good","N","N","Inverted and fat",0.296923077,0.170461538,0.200923077,0.096923077,-0.029538462,0.000923077,NA,0.020628203,"Y",0.003364618,"Broad","Broad","NCM",0.904051172,1.52317456275533,1.131313132,1.4778900109275,0.26237295913638
"D5_NCM_TRIAL5_A",1,"D5","NCM",5,"A","D5",2,8.706467661,1.812653934,2.548992727,2.273126329,"BR90",1.34,"Unfamiliar_BEFI","BEFI","Unfamiliar","D","normal",23,3,12,"12/21/22",15,"L",1.5,"x",-0.492,-0.00028,0.00132,NA,"Good","N","N","Inverted and fat",0.484307692,0.254,0.460615385,0.284307692,0.054,0.260615385,0.11,0.000724715,"Y",0.000569106,"Broad","Broad","NCM",6.706467661,8.73286304540954,4.733766234,10.2131940945412,-0.906425120568452
"D5_NCM_TRIAL5_B",1,"D5","NCM",5,"B","D5",5.6,11.99004975,1.723783215,3.671878693,1.599804039,"BR90",1.34,"Unfamiliar_BEFI","BEFI","Unfamiliar","D","normal",23,3,12,"12/21/22",15,"L",1.5,"x",0.535,-0.26,3e-04,NA,"Good","N","N","",0.365153846,0.231461538,0.342076923,0.165153846,0.031461538,0.142076923,0.03,0.000887625,"Y",0.485981308,"NS2","Narrow","NCM",6.39004975,15.9143941926802,4.09307359,21.1805672587896,-0.754273797847385
"D5_NCM_TRIAL6_A",1,"D5","NCM",6,"A","D5",1.533333333,8.706467661,1.684664726,2.214988208,2.958756501,"BR90",1.34,"Unfamiliar_BEFI","BEFI","Unfamiliar","D","normal",23,3,12,"12/21/22",15,"L",1.6,"x",-0.4192,-0.0016,0.00132,NA,"Good","N","N","Inverted and fat",0.3775,0.436666667,0.34925,0.1775,0.236666667,0.14925,0.02,0.000717549,"Y",0.003816794,"Broad","Broad","NCM",7.173134328,5.96761862193959,6.848484849,6.23468450659688,-0.185876206788565
"D5_NCM_TRIAL6_B",1,"D5","NCM",6,"B","D5",4,7.611940298,3.047247001,3.668988588,1.330345615,"BR90",1.34,"Unfamiliar_BEFI","BEFI","Unfamiliar","D","normal",23,3,12,"12/21/22",15,"L",1.6,"x",0.4319,-0.1833,0.00024,NA,"Good","Y","N","Inverted and fat; drifted out of spot at 363s but still some signal",0.281666667,0.190416667,0.260166667,0.081666667,-0.009583333,0.060166667,0.135,0.000427246,"Y",0.424403797,"NS2","Narrow","NCM",3.611940298,8.29538872809175,2.203463203,11.7523847087093,-0.629139150527087
"D5_NCM_TRIAL7_A",1,"D5","NCM",7,"A","D5",2.8,6.268656717,2.177810171,2.859846603,1.339226867,"BR90",1.34,"Unfamiliar_BEFI","BEFI","Unfamiliar","D","normal",23,3,12,"12/21/22",15,"R",1,"x",0.727,-0.226,0.00024,NA,"Good","N","N","COULD USE THESE TWO UNITS FOR A FIGURE SHOWING A BROAD AND A NARROW",0.291583333,0.245333333,0.277833333,0.091583333,0.045333333,0.077833333,0.065,0.001159668,"Y",0.310866575,"NS1","Narrow","NCM",3.468656717,7.06511621141774,4.028138528,6.2646548972576,0.306481752015453
"D5_NCM_TRIAL7_B",1,"D5","NCM",7,"B","D5",2.066666667,4.07960199,2.086236073,1.617052096,0.773878168,"BR90",1.34,"Unfamiliar_BEFI","BEFI","Unfamiliar","D","normal",23,3,12,"12/21/22",15,"R",1,"x",0.606,-0.142,0.00066,NA,"Good","N","N","",0.234,0.356166667,0.16725,0.034,0.156166667,-0.03275,NA,0.021303176,"Y",0.234323432,"Broad","Broad","NCM",2.012935323,6.74819534182651,4.015151516,6.08654729221678,1.11775696012141
"D5_NCM_TRIAL7_C",1,"D5","NCM",7,"C","D5",0.266666667,0.796019901,0.457737708,0.995912894,0.493687868,"BR90",1.34,"Unfamiliar_BEFI","BEFI","Unfamiliar","D","normal",23,3,12,"12/21/22",15,"R",1,"x",-0.05984,-1e-04,0.00138,NA,"Bad","N","N","Inverted and fat, might not be auditory",0.28375,0.166166667,0.176833333,0.08375,-0.033833333,-0.023166667,0.01,0.163515071,"N",0.001671123,"Broad","Broad","NCM",0.529353234,1.14780921281134,1.443722944,2.1422808789467,1.0082028747239
"D5_NCM_TRIAL8_A",1,"D5","NCM",8,"A","D5",1.8,5.820895522,1.082325539,2.809325218,1.207847135,"BR90",1.34,"Unfamiliar_BEFI","BEFI","Unfamiliar","D","normal",23,3,12,"12/21/22",15,"R",1.1,"x",0.5233,-0.1018,0.00066,NA,"Good","N","N","",0.352230769,0.222692308,0.317461538,0.152230769,0.022692308,0.117461538,0.125,0.002859971,"Y",0.194534684,"Broad","Broad","NCM",4.020895522,10.9072488281703,3.945454545,5.16586470718257,-0.0376345990522973
"D5_NCM_TRIAL8_B",1,"D5","NCM",8,"B","D5",4.333333333,9.402985074,2.225394561,3.125686126,1.569325681,"BR90",1.34,"Unfamiliar_BEFI","BEFI","Unfamiliar","D","normal",23,3,12,"12/21/22",15,"R",1.1,"x",0.4643,-0.0395,0.00018,NA,"Good","N","N","",0.488307692,0.207538462,0.470692308,0.288307692,0.007538462,0.270692308,0.065,0.001326062,"Y",0.085074305,"NS1","Narrow","NCM",5.069651741,10.6562312785881,3.242424242,6.2290786602183,-0.889340560597768
"D5_NCM_TRIAL8_C",1,"D5","NCM",8,"C","D5",3,7.114427861,3.251373336,1.488979413,1.266727876,"BR90",1.34,"Unfamiliar_BEFI","BEFI","Unfamiliar","D","normal",23,3,12,"12/21/22",15,"R",1.1,"x",-0.4896,7e-04,0.00132,NA,"Good","N","N","Inverted and fat",0.512846154,0.428076923,0.488230769,0.312846154,0.228076923,0.288230769,0.1,0.002854355,"Y",0.001429739,"Broad","Broad","NCM",4.114427861,10.6423900400394,5.171717172,8.90096928960714,0.478326264939369
"D5_NCM_TRIAL9_A",1,"D5","NCM",9,"A","D5",1.642857143,5.117270789,1.277445941,1.800994723,1.837332925,"BR90",1.34,"Unfamiliar_BEFI","BEFI","Unfamiliar","D","normal",23,3,12,"12/21/22",15,"R",1.2,"x",-0.5021,1e-04,0.0015,NA,"Good","N","N","Inverted and fat",0.505692308,0.187384615,0.472384615,0.305692308,-0.012615385,0.272384615,0.02,0.001359195,"Y",0.000199164,"Broad","Broad","NCM",3.474413646,3.6438652759409,2.547474747,2.52102438526087,-0.746652372415752
"D5_NCM_TRIAL9_B",1,"D5","NCM",9,"B","D5",5.071428571,6.663113007,2.615465416,2.948459214,0.412686875,"BR90",1.34,"Unfamiliar_BEFI","BEFI","Unfamiliar","D","normal",23,3,12,"12/21/22",15,"R",1.2,"x",0.588,-0.206,0.000545,NA,"Bad","N","N","Might not be auditory",0.327461538,0.194384615,0.329,0.127461538,-0.005615385,0.129,0.165,0.209174349,"N",0.350340136,"Broad","Broad","NCM",1.591684436,14.8433188186036,2.151515151,4.9755739208584,0.251505232171203
"D5_NCM_TRIAL9_C",1,"D5","NCM",9,"C","D5",3.285714286,10.44776119,1.589802669,3.970520428,1.621396659,"BR90",1.34,"Unfamiliar_BEFI","BEFI","Unfamiliar","D","normal",23,3,12,"12/21/22",15,"R",1.2,"ok",0.733,-0.455,0.00018,NA,"Good","N","N","",0.361307692,0.201153846,0.345,0.161307692,0.001153846,0.145,0.01,0.000366211,"Y",0.620736698,"NS2","Narrow","NCM",7.162046904,19.3313132713383,8.028282827,13.3950984536078,0.30284261722764
"F1_FL_TRIAL1_A",1,"F1","FL",1,"A","F1",7.571428571,18.24884793,3.631365196,8.313972393,1.659039221,"BF05",1.55,"Unfamiliar_BEFI","BEFI","Unfamiliar","F","Isolate",22,3,12.9,"5/12/22",15,"R",0.94,"x",-0.3728,0.1335,0.00024,NA,"Bad","N","N","Inverted",0.448666667,0.276583333,0.469666667,0.248666667,0.076583333,0.269666667,0.09,0.00012207,"Y",0.358100858,"Field L","Field L","Narrow",10.677419359,43.9215103170162,19.355555557,51.9772839335901,1.77235161004254
"F1_FL_TRIAL1_B",1,"F1","FL",1,"B","F1",5.071428571,10.41474655,2.673640149,2.591257867,1.779527999,"BF05",1.55,"Unfamiliar_BEFI","BEFI","Unfamiliar","F","Isolate",22,3,12.9,"5/12/22",15,"R",0.94,"x",0.3586,-0.0661,0.0002999,NA,"Bad","N","Y","Trough before peak",0.380583333,0.388166667,0.389083333,0.180583333,0.188166667,0.189083333,0.07,0.000244141,"Y",0.184327942,"Field L","Field L","Narrow",5.343317979,9.29145341885123,11.755555557,21.4439506119901,2.31323703800355
"F1_FL_TRIAL2_A",1,"F1","FL",2,"A","F1",2.466666667,5.763440861,2.099886618,2.838151042,0.976150234,"BF05",1.55,"Unfamiliar_BEFI","BEFI","Unfamiliar","F","Isolate",22,3,12.9,"5/12/22",15,"R",0.99,"ok",0.3921,-0.1178,0.00036,NA,"Bad","N","Y","Trough before peak",0.446916667,0.271666667,0.351416667,0.246916667,0.071666667,0.151416667,0.03,0.009745033,"Y",0.300433563,"Field L","Field L","Narrow",3.296774194,11.4214637598734,5,10.651851850237,0.725050802809937
"F1_FL_TRIAL2_B",1,"F1","FL",2,"B","F1",4.2,7.010752689,2.42604911,2.461134394,0.952194613,"BF05",1.55,"Unfamiliar_BEFI","BEFI","Unfamiliar","F","Isolate",22,3,12.9,"5/12/22",15,"R",0.99,"x",-0.4242,0.1825,0.00023998,NA,"Good","N","N","Inverted",0.254166667,0.284416667,0.282833333,0.054166667,0.084416667,0.082833333,0.125,0.006968146,"Y",0.430221594,"Field L","Field L","Narrow",2.810752689,8.87573592701446,6.844444447,7.73135802348049,1.97963845771586
"F1_FL_TRIAL3_A",1,"F1","FL",3,"A","F1",1.615384615,3.821339951,2.18091959,3.848154448,0.807878531,"BF05",1.55,"Unfamiliar_BEFI","BEFI","Unfamiliar","F","Isolate",22,3,12.9,"5/12/22",15,"R",1.04,"x",-0.513,0.368,0.00024,NA,"Bad","Y","N","Unit is lost after 621s, inverted",0.303909091,0.208545455,0.219545455,0.103909091,0.008545455,0.019545455,0.06,0.004163504,"Y",0.717348928,"Field L","Field L","Narrow",2.205955336,8.27159825474319,4.30952381,27.689909304856,0.701564660199775
"F1_FL_TRIAL3_B",1,"F1","FL",3,"B","F1",4.230769231,5.607940447,5.16645988,1.159634883,0.31588727,"BF05",1.55,"Unfamiliar_BEFI","BEFI","Unfamiliar","F","Isolate",22,3,12.9,"5/12/22",15,"R",1.04,"x",0.3974,-0.0538,0.0001259,NA,"Good","N","N","",0.305909091,0.262636364,0.259363636,0.105909091,0.062636364,0.059363636,0.22,0.162071041,"N",0.13537997,"Field L","Field L","Narrow",1.377171216,19.5356414959657,3.761904762,20.5147392252744,0.753644496733004
"F1_NCM_TRIAL4_A",1,"F1","NCM",4,"A","F1",3.461538462,6.749379653,2.696151103,2.06746068,1.051839978,"BF05",1.55,"Unfamiliar_BEFI","BEFI","Unfamiliar","F","Isolate",22,3,12.9,"5/12/22",15,"R",1.17,"x",-0.274,0.03645,0.00084,NA,"Good","N","N","Inverted and fat",0.175181818,0.327,0.134363636,-0.024818182,0.127,-0.065636364,0.285,0.02105867,"Y",0.133029197,"Broad","Broad","NCM",3.287841191,9.83870352004667,6.435897436,13.6646942785562,1.2986949542807
"F1_NCM_TRIAL4_B",1,"F1","NCM",4,"B","F1",4.538461538,7.741935484,5.966788424,5.038870759,1.322111306,"BF05",1.55,"Unfamiliar_BEFI","BEFI","Unfamiliar","F","Isolate",22,3,12.9,"5/12/22",15,"R",1.17,"x",0.2844,-0.099,0.00066,NA,"Good","N","N","Fat",0.461636364,0.294181818,0.396090909,0.261636364,0.094181818,0.196090909,0.07,0.004638672,"Y",0.348101266,"Broad","Broad","NCM",3.203473946,9.75016163322933,5.743589743,15.8658777179527,1.00375453436873
"F2_FL_TRIAL1_A",1,"F2","FL",1,"A","F2",2.533333333,5.15503876,2.695675549,2.445680711,0.834600018,"BF01",1.72,"Unfamiliar_BEFI","BEFI","Unfamiliar","F","Isolate",20,1,12,"5/10/22",15,"L",0.87,"x",0.749,-0.189,0.00096,NA,"Good","N","N","",0.3651,0.1547,0.2956,0.1651,-0.0453,0.0956,0.065,0.009745033,"Y",0.252336449,"Field L","Field L","Broad",2.621705427,10.0340700678718,3.685875707,8.34426378070695,0.496464332957817
"F2_FL_TRIAL1_B",1,"F2","FL",1,"B","F2",2,4.612403101,2.035400978,1.680260818,0.938549937,"BF01",1.72,"Unfamiliar_BEFI","BEFI","Unfamiliar","F","Isolate",20,1,12,"5/10/22",15,"L",0.87,"x",-0.793,0.581,0.00042,NA,"Good","N","N","Inverted",0.3262,0.1798,0.2878,0.1262,-0.0202,0.0878,0.08,0.006945379,"Y",0.732660782,"Field L","Field L","Broad",2.612403101,7.66451535335901,2.185310734,2.05000351158,-0.274057162868592
"F2_FL_TRIAL2_A",1,"F2","FL",2,"A","F2",4.8,9.108527132,1.897366596,2.652177732,1.239404518,"BF01",1.72,"Unfamiliar_BEFI","BEFI","Unfamiliar","F","Isolate",20,1,12,"5/10/22",15,"L",0.95,"x",-0.752,0.481,0.00047999,NA,"Good","N","N","Inverted",0.319857143,0.251,0.266785714,0.119857143,0.051,0.066785714,0.305,0.001323075,"Y",0.63962766,"Field L","Field L","Broad",4.308527132,11.940614150347,3.844067796,6.1200880944121,-0.218579977164779
"F2_FL_TRIAL2_B",1,"F2","FL",2,"B","F2",8.066666667,9.68992248,3.899938949,2.587668093,0.40249856,"BF01",1.72,"Unfamiliar_BEFI","BEFI","Unfamiliar","F","Isolate",20,1,12,"5/10/22",15,"L",0.95,"x",-0.743,0.411,0.00017999,NA,"Bad","N","N","Inverted, may not be auditory",0.386285714,0.167357143,0.339,0.186285714,-0.032642857,0.139,NA,0.094604492,"N",0.553162853,"Field L","Field L","Narrow",1.623255813,16.5433711875339,-1.916384181,20.9720374053569,-1.15580414797295
"F2_FL_TRIAL2_C",1,"F2","FL",2,"C","F2",5.733333333,11.47286822,2.433887739,2.519592802,1.631684454,"BF01",1.72,"Unfamiliar_BEFI","BEFI","Unfamiliar","F","Isolate",20,1,12,"5/10/22",15,"L",0.95,"x",-1.248,0.738,0.00018,NA,"Good","N","N","Inverted",0.424928571,0.239071429,0.371642857,0.224928571,0.039071429,0.171642857,0.055,0.000889762,"Y",0.591346154,"Field L","Field L","Narrow",5.739534887,12.3118947191819,8.590960457,27.5079140726248,0.903737805680115
"F2_FL_TRIAL3_A",1,"F2","FL",3,"A","F2",3,6.511627907,1.812653934,1.285096042,1.869499529,"BF01",1.72,"Unfamiliar_BEFI","BEFI","Unfamiliar","F","Isolate",20,1,12,"5/10/22",15,"L",1,"x",-0.723,0.443,0.00024,NA,"Good","N","N","Inverted",0.3449,0.3058,0.2608,0.1449,0.1058,0.0608,0.085,6.1e-05,"Y",0.612724758,"Field L","Field L","Narrow",3.511627907,3.60028844438507,2.003389831,8.92250119826572,-0.852411604561937
"F2_FL_TRIAL3_B",1,"F2","FL",3,"B","F2",4.133333333,6.860465117,1.726543478,2.458808454,1.044761809,"BF01",1.72,"Unfamiliar_BEFI","BEFI","Unfamiliar","F","Isolate",20,1,12,"5/10/22",15,"L",1,"x",0.677,-0.292,0.00023999,NA,"Good","N","Y","Trough before peak",0.4297,0.2035,0.406,0.2297,0.0035,0.206,0.05,0.00201416,"Y",0.431314623,"Field L","Field L","Narrow",2.727131784,6.92103599671029,3.628248588,17.2608816088732,0.366493026625796
"F2_FL_TRIAL4_A",1,"F2","FL",4,"A","F2",4.066666667,5.736434109,2.987274598,2.672130564,0.394786503,"BF01",1.72,"Unfamiliar_BEFI","BEFI","Unfamiliar","F","Isolate",20,1,12,"5/10/22",15,"L",1.05,"x",-0.757,0.246,0.00024,NA,"Good","N","N","Inverted",0.28925,0.247666667,0.333916667,0.08925,0.047666667,0.133916667,0.21,0.20118884,"N",0.324966975,"Field L","Field L","Narrow",1.669767442,17.6959942318918,4.694915255,16.3778881267211,1.03649159708861
"F2_FL_TRIAL4_B",1,"F2","FL",4,"B","F2",5.266666667,6.201550388,3.081434422,2.71515511,0.263803345,"BF01",1.72,"Unfamiliar_BEFI","BEFI","Unfamiliar","F","Isolate",20,1,12,"5/10/22",15,"L",1.05,"x",0.736,-0.244,0.00024,NA,"Duplicate","N","Y","Trough before peak",0.192083333,0.220333333,0.187333333,-0.007916667,0.020333333,-0.012666667,0.06,0.348590881,"N",0.331521739,"Field L","Field L","Narrow",0.934883721,12.771242117202,2.262711865,7.00565313550433,0.5971628863471
"F2_FL_TRIAL5_A",1,"F2","FL",5,"A","F2",4.714285714,7.516611296,2.757606862,3.316144067,0.793632229,"BF01",1.72,"Unfamiliar_BEFI","BEFI","Unfamiliar","F","Isolate",20,1,12,"5/10/22",15,"R",1.05,"x",-0.629,0.387,0.00047999,NA,"Good","N","N","Inverted",0.348538462,0.197384615,0.297692308,0.148538462,-0.002615385,0.097692308,0.065,0.020263672,"Y",0.615262321,"Field L","Field L","Broad",2.802325582,12.8112300142105,3.909604519,11.319799545908,0.450815779176291
"F2_FL_TRIAL6_B",1,"F2","FL",6,"B","F2",1.285714286,5.024916944,1.38278267,2.22976988,1.483399943,"BF01",1.72,"Unfamiliar_BEFI","BEFI","Unfamiliar","F","Isolate",20,1,12,"5/10/22",15,"R",1.1,"ok",-0.802,0.78,3e-04,NA,"Good","N","N","Inverted",0.472,0.246333333,0.37925,0.272,0.046333333,0.17925,0.125,0.001691801,"Y",0.972568579,"Field L","Field L","Narrow",3.739202658,6.35665445156262,4.4589309,5.76710766115268,0.413408914446685
"F2_FL_TRIAL6_C",1,"F2","FL",6,"C","F2",3.357142857,6.893687708,2.060886398,2.772911632,1.685819281,"BF01",1.72,"Unfamiliar_BEFI","BEFI","Unfamiliar","F","Isolate",20,1,12,"5/10/22",15,"R",1.1,"x",-0.685,0.342,0.00018,NA,"Good","N","N","",0.601083333,0.25525,0.575833333,0.401083333,0.05525,0.375833333,0.065,0.001687337,"Y",0.499270073,"Field L","Field L","Narrow",3.536544851,4.87819394867404,2.923076924,4.54845492378973,-0.399616298212061
"F2_FL_TRIAL6_D",1,"F2","FL",6,"D","F2",1.142857143,2.657807309,1.231455852,1.83448834,0.960318781,"BF01",1.72,"Unfamiliar_BEFI","BEFI","Unfamiliar","F","Isolate",20,1,12,"5/10/22",15,"R",1.1,"x",0.717,0.183,0.00096,NA,"Good","N","N","Fat",0.419083333,0.143166667,0.300166667,0.219083333,-0.056833333,0.100166667,0.09,0.008341822,"Y",0.255230126,"Field L","Field L","Broad",1.514950166,2.63469498058975,-0.156453716,14.2605420126904,-0.813259711588928
"F2_NCM_TRIAL1_A",1,"F2","NCM",1,"A","F2",2.333333333,3.488372093,1.718249386,1.053868567,0.537214738,"BF01",1.72,"Unfamiliar_BEFI","BEFI","Unfamiliar","F","Isolate",20,1,12,"5/10/22",15,"L",1.15,"ok?",-0.3419,0.1055,0.001076,NA,"Bad","N","N","Inverted and fat",0.2694,0.26,0.2643,0.0694,0.06,0.0643,0.185,0.064315956,"N",0.308569757,"Broad","Broad","NCM",1.15503876,4.56734571306234,4.774011299,8.29683679978785,2.01801405555437
"F2_NCM_TRIAL1_B",1,"F2","NCM",1,"B","F2",1.866666667,5.07751938,1.407463101,2.34075889,1.291960669,"BF01",1.72,"Unfamiliar_BEFI","BEFI","Unfamiliar","F","Isolate",20,1,12,"5/10/22",15,"L",1.15,"x",0.3271,-0.2103,0.00048,NA,"Good","N","N","",0.1603,0.169,0.1308,-0.0397,-0.031,-0.0692,0.065,0.000305176,"Y",0.642922654,"Broad","Broad","NCM",3.210852713,6.22891412779612,6.190960452,7.16791982180532,1.62839917520373
"F2_NCM_TRIAL3_A",1,"F2","NCM",3,"A","F2",2,6.279069768,1.558387445,2.693131127,1.430092812,"BF01",1.72,"Unfamiliar_BEFI","BEFI","Unfamiliar","F","Isolate",20,1,12,"5/10/22",15,"L",1.25,"x",0.3575,-0.1967,0.0005999,NA,"Good","N","N","",0.257777778,0.179555556,0.285111111,0.057777778,-0.020444444,0.085111111,0.07,0.001329052,"Y",0.55020979,"Broad","Broad","NCM",4.279069768,8.95857220444117,6.161581922,10.2427220826909,0.859216349865248
"F2_NCM_TRIAL4_A",1,"F2","NCM",4,"A","F2",1.785714286,5.315614618,1.528124614,2.517331268,1.065951223,"BF01",1.72,"Unfamiliar_BEFI","BEFI","Unfamiliar","F","Isolate",20,1,12,"5/10/22",15,"L",1.3,"x",-0.3939,0.0971,0.00108,NA,"Good","Y","N","Inverted and fat",0.289083333,0.215166667,0.2685,0.089083333,0.015166667,0.0685,0.065,0.00994753,"Y",0.246509266,"Broad","Broad","NCM",3.529900332,10.7579524501982,5.742130751,8.36320345352191,1.01182005724687
"F2_NCM_TRIAL4_B",1,"F2","NCM",4,"B","F2",1.285714286,5.440199336,2.163635524,2.387450101,1.387723229,"BF01",1.72,"Unfamiliar_BEFI","BEFI","Unfamiliar","F","Isolate",20,1,12,"5/10/22",15,"L",1.3,"x",0.3851,-0.1751,0.000539999,NA,"Good","Y","N","",0.27975,0.185416667,0.286583333,0.07975,-0.014583333,0.086583333,0.085,0.002578163,"Y",0.454687094,"Broad","Broad","NCM",4.15448505,9.0108635661577,5,7.51089588550364,0.41602855394958
"F2_NCM_TRIAL5_A",1,"F2","NCM",5,"A","F2",2.214285714,4.775747508,2.326389458,2.067255559,0.827226462,"BF01",1.72,"Unfamiliar_BEFI","BEFI","Unfamiliar","F","Isolate",20,1,12,"5/10/22",15,"R",1.1,"x",0.3868,-0.2065,0.00048,NA,"Good","N","N","",0.23375,0.205666667,0.18875,0.03375,0.005666667,-0.01125,0.24,0.023789604,"Y",0.533867632,"Broad","Broad","NCM",2.561461794,9.54553481740289,3.922033898,8.02270612225826,0.649213315189415
"F2_NCM_TRIAL5_B",1,"F2","NCM",5,"B","F2",3.642857143,5.398671096,2.951066114,2.204218935,0.520092232,"BF01",1.72,"Unfamiliar_BEFI","BEFI","Unfamiliar","F","Isolate",20,1,12,"5/10/22",15,"R",1.1,"ok",-0.3812,0.0945,0.0012,NA,"Good","N","N","Inverted and fat",0.5495,0.367916667,0.34225,0.3495,0.167916667,0.14225,0.085,0.090576172,"N",0.247901364,"Broad","Broad","NCM",1.755813953,11.4829444484011,1.570621469,0.931903348241616,-0.105119346621671
"F2_NCM_TRIAL6_A",1,"F2","NCM",6,"A","F2",6.357142857,9.177740864,8.78466446,3.321739992,0.3030306,"BF01",1.72,"Unfamiliar_BEFI","BEFI","Unfamiliar","F","Isolate",20,1,12,"5/10/22",15,"R",1.15,"x",-0.3378,0.0621,0.00084,NA,"Good","N","N","Inverted and fat",0.67575,0.350083333,0.58875,0.47575,0.150083333,0.38875,0.215,0.032767031,"Y",0.18383659,"Broad","Broad","NCM",2.820598007,86.3000408314724,0.328552804,12.3297256914197,-0.501859221783168
