Unit2,Stimulus,ID.x,Region,Trial,Letter,StimSet,base_fr,stim_fr,basesd,stimsd,Z_score,stimID,Duration.s,FamUnfamSpecies,Species,FamUnfam,Clutch,Treatment,Age,DaysPostFledge,Mass,Date,No_reps,Hemisphere,Depth,ISI.check,Peak_V,Trough_V,Peak.to.Peak_s,Type,Quality,Exclude4PC,TroughBeforePeak,Notes,Accuracy.rcorr,Accuracy.count,Accuracy.cross_corr,normal_rcorr,normal_count,normal_cross_corr,Latency,p.value,sigYN,Peak2PeakRatio,Type0,TypeBN,TypeFL,RS_WN,pop_var_WN
A2_FL_TRIAL1_A,3,A2,FL,1,A,A2,4.5,5.411764706,2.592724864,1.380926812,0.296352427,WN,1.7,WN_WN,WN,WN,A,xfostered,23,2,9.6,5/22/21,15,R,1.12,x,-0.979,0.39,0.000479999,NA,Good,Y,N,Inverted but beautiful,0.173777778,0.171444444,0.165777778,-0.026222222,-0.028555556,-0.034222222,0.01,0.385652987,N,0.398365679,Field L,Field L,Broad,0.911764706,9.295674739
A2_FL_TRIAL1_B,3,A2,FL,1,B,A2,2.1,3.05882353,1.286683938,1.488130664,0.580848176,WN,1.7,WN_WN,WN,WN,A,xfostered,23,2,9.6,5/22/21,15,R,1.12,x,0.931,0,0.0032,NA,Bad,Y,N,ISI and PSTH look good but shape is gross; fat with no hyperpolarization,0.209111111,0.390777778,0.303555556,0.009111111,0.190777778,0.103555556,0.015,0.16015625,N,0,Field L,Field L,Broad,0.95882353,2.800726644
A2_FL_TRIAL2_A,3,A2,FL,2,A,A2,5.076923077,7.78280543,2.782730627,4.181258276,0.669234915,WN,1.7,WN_WN,WN,WN,A,xfostered,23,2,9.6,5/22/21,15,R,1.22,x,-0.774,0.001,0.000240002,NA,Good,N,N,Inverted,0.1595,0.693,0.206,-0.0405,0.493,0.006,NA,0.068115234,N,0.00129199,Field L,Field L,Narrow,2.705882353,16.88155443
A2_FL_TRIAL2_B,3,A2,FL,2,B,A2,6,6.28959276,8.582928793,4.134312322,0.030417717,WN,1.7,WN_WN,WN,WN,A,xfostered,23,2,9.6,5/22/21,15,R,1.22,x,0.733,0.06,0.001020065,NA,Good,N,N,,0.101375,0.73575,0.20475,-0.098625,0.53575,0.00475,NA,0.100421328,N,0.081855389,Field L,Field L,Broad,0.28959276,90.11256936
A2_FL_TRIAL3_A,3,A2,FL,3,A,A2,1.4,3.176470588,1.505545305,2.256180371,1.091800848,WN,1.7,WN_WN,WN,WN,A,xfostered,23,2,9.6,5/22/21,15,R,1.38,x,0.692,-0.159,0.00018,NA,Good,N,Y,Trough before peak,0.138111111,0.356555556,0.231111111,-0.061888889,0.156555556,0.031111111,0.04,0.014369289,Y,0.229768786,Field L,Field L,Narrow,1.776470588,3.044844291
A2_FL_TRIAL4_A,3,A2,FL,4,A,A2,3.157894737,4.829721362,1.675415633,1.693315753,0.678542141,WN,1.7,WN_WN,WN,WN,A,xfostered,23,2,9.6,5/22/21,20,R,1.47,x,-0.755,0.29,0.000180001,NA,Good,N,N,Inverted,0.264666667,0.615083333,0.32275,0.064666667,0.415083333,0.12275,0.345,0.018540442,Y,0.38410596,Field L,Field L,Narrow,1.671826625,6.033988632
A2_FL_TRIAL5_A,3,A2,FL,5,A,A2,1.533333333,2.352941176,1.641718032,0.969122907,0.410812844,WN,1.7,WN_WN,WN,WN,A,xfostered,23,2,9.6,5/22/21,15,L,1.39,x,0.672,-0.201,0.000179998,NA,Good,N,N,Higher peak was after lower peak,0.076454545,0.829909091,0.115545455,-0.123545455,0.629909091,-0.084454545,0.385,0.221668335,N,0.299107143,Field L,Field L,Narrow,0.819607843,3.941161093
A2_FL_TRIAL5_B,3,A2,FL,5,B,A2,1.8,2.980392157,2.077085871,1.714505396,0.625594045,WN,1.7,WN_WN,WN,WN,A,xfostered,23,2,9.6,5/22/21,15,L,1.39,x,-0.85,0.357,0.000120009,NA,Good,N,N,Inverted,0.095363636,0.597363636,0.163181818,-0.104636364,0.397363636,-0.036818182,0.015,0.053329979,N,0.42,Field L,Field L,Narrow,1.180392157,3.774148404
A2_FL_TRIAL6_A,3,A2,FL,6,A,A2,6.923076923,3.393665158,5.235480533,2.391278923,-0.819599075,WN,1.7,WN_WN,WN,WN,A,xfostered,23,2,9.6,5/22/21,15,L,1.44,x,0.7,-0.042,0.001259771,NA,Good,N,N,,0.133636364,0.453727273,0.246272727,-0.066363636,0.253727273,0.046272727,NA,0.032714844,Y,0.06,Field L,Field L,Broad,-3.529411765,19.46978973
A2_FL_TRIAL6_B,3,A2,FL,6,B,A2,2.461538462,3.665158371,2.22168797,2.75021071,0.649089468,WN,1.7,WN_WN,WN,WN,A,xfostered,23,2,9.6,5/22/21,15,L,1.44,x,-0.865,0.114,0.001019992,NA,Good,N,N,Inverted,0.128,0.324363636,0.161545455,-0.072,0.124363636,-0.038454545,NA,0.065257257,N,0.131791908,Field L,Field L,Broad,1.203619909,4.061546652
A2_FL_TRIAL7_A,3,A2,FL,7,A,A2,1.4,0.274509804,2.028370211,0.376435573,-0.5659053,WN,1.7,WN_WN,WN,WN,A,xfostered,23,2,9.6,5/22/21,15,L,1.54,x,0.772,-0.03,0.001259961,NA,Bad,N,N,,0.132,0.62175,0.515,-0.068,0.42175,0.315,NA,0.02452963,Y,0.038860104,Field L,Field L,Broad,-1.125490196,3.95657055
A2_FL_TRIAL7_B,3,A2,FL,7,B,A2,0.666666667,0.588235294,0.899735411,0.544600059,-0.071584615,WN,1.7,WN_WN,WN,WN,A,xfostered,23,2,9.6,5/22/21,15,L,1.54,x,-1.054,0.157,0.000359963,NA,Bad,N,N,Inverted,0.1395,0.34,0.40525,-0.0605,0.14,0.20525,NA,0.622460656,N,0.148956357,Field L,Field L,Narrow,-0.078431373,1.18923491
A2_NCM_TRIAL1_A,3,A2,NCM,1,A,A2,9.5,13.05882353,2.990726407,2.430107199,1.36185254,WN,1.7,WN_WN,WN,WN,A,xfostered,23,2,9.6,5/22/21,15,R,1.14,x,0.4347,-0.131,0.000179999,NA,Good,Y,N,,0.869222222,1,0.931222222,0.669222222,0.8,0.731222222,0.025,0.00390625,Y,0.301357258,NS1,Narrow,NCM,3.55882353,7.482525956
A2_NCM_TRIAL2_A,3,A2,NCM,2,A,A2,3.076923077,3.303167421,3.882901374,3.099079574,0.062420578,WN,1.7,WN_WN,WN,WN,A,xfostered,23,2,9.6,5/22/21,15,R,1.24,x,0.3594,0.0343,0.000899996,NA,Good,N,N,,0.1055,0.54575,0.195875,-0.0945,0.34575,-0.004125,0.025,0.575987029,N,0.095436839,Broad,Broad,NCM,0.226244344,13.879077
A2_NCM_TRIAL2_B,3,A2,NCM,2,B,A2,2.153846154,2.352941176,5.193684528,2.641606585,0.03755479,WN,1.7,WN_WN,WN,WN,A,xfostered,23,2,9.6,5/22/21,15,R,1.24,x,-0.3945,0.0247,0.001259966,NA,Good,N,N,Inverted; might not be auditory,0.180875,0.270875,0.300125,-0.019125,0.070875,0.100125,NA,0.307119032,N,0.0626109,Broad,Broad,NCM,0.199095022,28.3542925
A2_NCM_TRIAL3_B,3,A2,NCM,3,B,A2,5.9,5.352941176,4.357624225,3.974640875,-0.148796106,WN,1.7,WN_WN,WN,WN,A,xfostered,23,2,9.6,5/22/21,15,R,1.44,x,0.2604,-0.0164,0.001259995,NA,Bad,N,N,,0.168444444,0.411333333,0.205222222,-0.031555556,0.211333333,0.005222222,0.135,1,N,0.062980031,Broad,Broad,NCM,-0.547058824,15.29622837
A2_NCM_TRIAL6_A,3,A2,NCM,6,A,A2,8.692307692,5.656108597,8.750091575,3.080414575,-0.339091663,WN,1.7,WN_WN,WN,WN,A,xfostered,23,2,9.6,5/22/21,15,L,1.02,x,0.26941,-0.04681,0.000479849,NA,Good,N,N,,0.141454545,0.401818182,0.179545455,-0.058545455,0.201818182,-0.020454545,NA,0.497314453,N,0.173750046,Broad,Broad,NCM,-3.036199095,80.11580435
A2_NCM_TRIAL7_A,3,A2,NCM,7,A,A2,12.73333333,7.882352941,13.25824092,5.010123217,-0.370269979,WN,1.7,WN_WN,WN,WN,A,xfostered,23,2,9.6,5/22/21,15,L,0.97,x,0.28998,-0.04797,0.000839939,NA,Bad,N,N,,0.178125,0.51225,0.1995,-0.021875,0.31225,-5.00E-04,NA,0.20118884,N,0.165425202,Broad,Broad,NCM,-4.850980389,172.6979777
A3_FL_TRIAL1_A,3,A3,FL,1,A,A3,3.133333333,11.41176471,2.669046557,5.083582174,1.662830191,WN,1.7,WN_WN,WN,WN,A,normal,20,3,11.7,5/16/21,15,L,1.73,x,-0.535,0.244,0.00018,NA,Good,N,N,Drifted into the spot so first presentations not great,0.160285714,0.201928571,0.182071429,-0.039714286,0.001928571,-0.017928571,0.035,0.000724715,Y,0.456074766,Field L,Field L,Narrow,8.278431377,25.18452903
A3_FL_TRIAL2_A,3,A3,FL,2,A,A3,0.636363636,2.673796791,0.809039835,1.157602712,1.698491158,WN,1.7,WN_WN,WN,WN,A,normal,20,3,11.7,5/16/21,15,L,1.79,x,-1.041,0.135,0.001019988,NA,Good,N,N,Inverted,0.166571429,0.206285714,0.223285714,-0.033428571,0.006285714,0.023285714,0.01,0.0038398,Y,0.129682997,Field L,Field L,Broad,2.037433155,1.472961767
A3_FL_TRIAL3_A,3,A3,FL,3,A,A3,2.45,6.294117647,3.410124245,3.366195086,1.156064807,WN,1.7,WN_WN,WN,WN,A,normal,20,3,11.7,5/16/21,20,L,1.64,ok,-0.717,0.313,0.00018,NA,Bad,N,N,Inverted; Low S:N,0.259894737,0.324,0.269473684,0.059894737,0.124,0.069473684,0.03,0.000480833,Y,0.436541144,Field L,Field L,Narrow,3.844117647,11.59455883
A3_FL_TRIAL4_A,3,A3,FL,4,A,A3,0.75,1.617647059,1.069923755,1.829312711,0.465302091,WN,1.7,WN_WN,WN,WN,A,normal,20,3,11.7,5/16/21,20,L,1.49,x,-0.942,0.161,0.000420001,NA,Good,N,N,Inverted,0.163117647,0.322470588,0.213647059,-0.036882353,0.122470588,0.013647059,0.045,0.046062879,Y,0.170912951,Field L,Field L,Broad,0.867647059,3.516565744
A3_NCM_TRIAL1_A,3,A3,NCM,1,A,A3,2,1.960784314,1.812653934,1.034899339,-0.019057524,WN,1.7,WN_WN,WN,WN,A,normal,20,3,11.7,5/16/21,15,L,1,x,0.3605,-0.0821,0.000360008,NA,Good,N,N,,0.312142857,0.882285714,0.375071429,0.112142857,0.682285714,0.175071429,0.055,1,N,0.227739251,NS1,Narrow,NCM,-0.039215686,4.223144945
A3_NCM_TRIAL2_A,3,A3,NCM,2,A,A3,2.181818182,2.94117647,2.400757456,3.101512076,0.496673544,WN,1.7,WN_WN,WN,WN,A,normal,20,3,11.7,5/16/21,15,L,1.1,x,0.637,-0.392,0.000180003,NA,Good,N,N,"Only 1st half of trial are these measurements (second half peak, trough , p2p = 0.4866V, -0.193V, 0.000179996s)",0.297142857,0.724714286,0.376,0.097142857,0.524714286,0.176,0.01,0.240234375,N,0.615384615,NS2,Narrow,NCM,0.759358288,3.396322456
A3_NCM_TRIAL3_A,3,A3,NCM,3,A,A3,5.25,7.205882353,3.058637468,2.849180439,0.678173786,WN,1.7,WN_WN,WN,WN,A,normal,20,3,11.7,5/16/21,20,L,1.2,x,0.3667,-0.0511,0.000420005,NA,Good,N,N,,0.397947368,0.792947368,0.472473684,0.197947368,0.592947368,0.272473684,0.04,0.016871369,Y,0.139350968,Broad,Broad,NCM,1.955882353,8.731790658
A3_NCM_TRIAL4_A,3,A3,NCM,4,A,A3,0.6,1.529411765,0.680557047,0.840601462,0.793661376,WN,1.7,WN_WN,WN,WN,A,normal,20,3,11.7,5/16/21,20,L,1.3,x,0.3437,-0.0586,0.00024,NA,Good,N,N,,0.168588235,0.257529412,0.269176471,-0.031411765,0.057529412,0.069176471,0.09,0.00527004,Y,0.170497527,NS1,Narrow,NCM,0.929411765,1.3583391
A4_FL_TRIAL1_A,3,A4,FL,1,A,A4,1.333333333,2.352941176,1.714985851,1.838148787,0.992503779,WN,1.7,WN_WN,WN,WN,A,normal,21,4,12,5/17/21,20,R,1.1,x,-1.23,0.093,0.000180029,NA,Bad,Y,N,Inverted with double depolarization peak; Loose spot a bit after 45 presentations,0.356941176,0.354764706,0.372176471,0.156941176,0.154764706,0.172176471,0.01,0.004022779,Y,0.075609756,Field L,Field L,Narrow,1.019607843,1.328335256
A4_FL_TRIAL3_A,3,A4,FL,3,A,A4,2.3125,7.5,1.815443013,3.182275016,1.675673887,WN,1.7,WN_WN,WN,WN,A,normal,21,4,12,5/17/21,20,R,1.25,x,-1.133,0.355,0.000240001,NA,Good,N,N,Inverted,0.243266667,0.3188,0.243466667,0.043266667,0.1188,0.043466667,0.01,0.000583419,Y,0.313327449,Field L,Field L,Narrow,5.1875,9.771288385
A4_FL_TRIAL3_B,3,A4,FL,3,B,A4,1.1875,3.198529412,1.515200757,1.677158442,0.759555941,WN,1.7,WN_WN,WN,WN,A,normal,21,4,12,5/17/21,20,R,1.25,x,1.014,-0.09,0.001259997,NA,Bad,N,N,Shape is weird,0.203666667,0.221066667,0.202266667,0.003666667,0.021066667,0.002266667,0.01,0.01204531,Y,0.088757396,Field L,Field L,Broad,2.011029412,6.871201882
A4_FL_TRIAL4_A,3,A4,FL,4,A,A4,3.75,9.485294117,2.251983253,2.444388896,3.108045471,WN,1.7,WN_WN,WN,WN,A,normal,21,4,12,5/17/21,20,R,1.3,ok,-1.324,0.406,0.00024,NA,Bad,N,N,Inverted; lost spot after 460s,0.257666667,0.294333333,0.234833333,0.057666667,0.094333333,0.034833333,0.055,0.0078125,Y,0.306646526,Field L,Field L,Narrow,5.735294117,4.187716264
A4_FL_TRIAL5_A,3,A4,FL,5,A,A4,1.375,4.926470588,1.685018016,2.413864632,1.302407326,WN,1.7,WN_WN,WN,WN,A,normal,21,4,12,5/17/21,20,R,1.35,ok,-1.028,0.5,0.00018,NA,Bad,N,N,Inverted; Lost spot after 640s,0.203285714,0.469285714,0.364857143,0.003285714,0.269285714,0.164857143,0.06,0.0234375,Y,0.486381323,Field L,Field L,Narrow,3.551470588,7.454098183
A4_NCM_TRIAL1_A,3,A4,NCM,1,A,A4,0.944444444,1.830065359,0.998364676,1.121354058,0.628932837,WN,1.7,WN_WN,WN,WN,A,normal,21,4,12,5/17/21,20,R,1.06,x,0.6942,0.0843,0.000240001,NA,Bad,N,N,Weird double peak,0.161529412,0.462882353,0.250588235,-0.038470588,0.262882353,0.050588235,0.01,0.026239441,Y,0.121434745,NS1,Narrow,NCM,0.885620915,1.990954334
A4_NCM_TRIAL1_B,3,A4,NCM,1,B,A4,0.611111111,0.784313725,0.777544316,0.924594409,0.132788714,WN,1.7,WN_WN,WN,WN,A,normal,21,4,12,5/17/21,20,R,1.06,x,-0.832,0.002,0.001,NA,Bad,N,N,"Inverted, horrible shape",0.150941176,0.770588235,0.532882353,-0.049058824,0.570588235,0.332882353,0.01,0.7055266,N,0.002403846,Broad,Broad,NCM,0.173202614,1.683380324
A4_NCM_TRIAL3_A,3,A4,NCM,3,A,A4,1.3125,2.058823529,0.704154339,1.052267284,0.748910951,WN,1.7,WN_WN,WN,WN,A,normal,21,4,12,5/17/21,20,R,1.25,x,0.5946,-0.0333,0.00042,NA,Good,N,N,,0.144866667,0.6516,0.300533333,-0.055133333,0.4516,0.100533333,0.025,0.027871299,Y,0.056004036,Broad,Broad,NCM,0.746323529,1.024964858
A4_NCM_TRIAL4_A,3,A4,NCM,4,A,A4,0.611111111,1.862745098,0.916443823,1.691082441,0.75873127,WN,1.7,WN_WN,WN,WN,A,normal,21,4,12,5/17/21,20,R,1.35,x,0.588,-0.183,0.0004199,NA,Good,Y,N,,0.410928571,0.757428571,0.521571429,0.210928571,0.557428571,0.321571429,0.1,0.005468626,Y,0.31122449,Broad,Broad,NCM,1.251633987,2.764246658
A4_NCM_TRIAL5_A,3,A4,NCM,5,A,A4,0.583333333,1.81372549,0.668557923,1.833907562,0.816345618,WN,1.7,WN_WN,WN,WN,A,normal,21,4,12,5/17/21,20,R,1.45,x,0.531,-0.213,0.00036,NA,Good,N,N,,0.210090909,0.719454545,0.387272727,0.010090909,0.519454545,0.187272727,0.04,0.023239747,Y,0.401129944,NS2,Narrow,NCM,1.230392157,2.373390042
A5_FL_TRIAL1_A,4,A5,FL,1,A,A5,2.222222222,4.31372549,2.166666667,1.883271835,0.71937454,WN,1.7,WN_WN,WN,WN,A,normal,20,2,10.6,5/19/21,20,R,1.25,x,-0.8269,0.295,0.000599999,NA,Good,N,N,Inverted,0.3105,0.2855,0.26975,0.1105,0.0855,0.06975,0.05,0.07421875,N,0.356754142,Field L,Field L,Broad,2.091503268,8.327651758
A5_FL_TRIAL1_B,4,A5,FL,1,B,A5,0.666666667,2.352941176,0.707106781,1.583872002,1.00391005,WN,1.7,WN_WN,WN,WN,A,normal,20,2,10.6,5/19/21,20,R,1.25,x,0.759,0,0.001320188,NA,Bad,N,N,Shape is weird,0.37275,0.545375,0.459,0.17275,0.345375,0.259,0.01,0.029973974,Y,0,Field L,Field L,Broad,1.686274509,2.805074971
A5_FL_TRIAL2_A,4,A5,FL,2,A,A5,1,1.633986928,0.866025404,1.168272087,0.557839889,WN,1.7,WN_WN,WN,WN,A,normal,20,2,10.6,5/19/21,20,R,1.35,ok,-1.021,0.312,0.000539945,NA,Bad,N,N,Inverted,0.122625,0.2825,0.208375,-0.077375,0.0825,0.008375,0.03,0.234901282,N,0.305582762,Field L,Field L,Broad,0.633986928,1.356999445
A5_NCM_TRIAL1_A,4,A5,NCM,1,A,A5,0.666666667,2.222222222,1,1.783667196,0.706755948,WN,1.7,WN_WN,WN,WN,A,normal,20,2,10.6,5/19/21,20,R,1.01,ok,0.3452,-0.107,0.000240002,NA,Good,N,N,,0.113125,0.333625,0.289875,-0.086875,0.133625,0.089875,0.06,0.057584115,N,0.309965238,NS1,Narrow,NCM,1.555555555,4.719039686
A5_NCM_TRIAL2_A,4,A5,NCM,2,A,A5,0.777777778,1.37254902,1.092906421,1.139112749,0.383029744,WN,1.7,WN_WN,WN,WN,A,normal,20,2,10.6,5/19/21,20,R,1.11,x,0.4146,-0.0409,0.001259986,NA,Good,N,N,,0.246625,0.488,0.32725,0.046625,0.288,0.12725,0.16,0.284624288,N,0.098649301,Broad,Broad,NCM,0.594771242,2.389422872
B3_NCM_TRIAL1_A,5,B3,NCM,1,A,B3,1.266666667,1.725490196,0.798808637,1.286199356,0.303515039,WN,1.7,WN_WN,WN,WN,B,BEFI,33,6,8.3,7/27/21,15,R,1.08,x,0.6563,-0.0358,0.00024,NA,Good,N,N,,0.132428571,0.228714286,0.202642857,-0.067571429,0.028714286,0.002642857,0.045,0.24391301,N,0.054548225,NS1,Narrow,NCM,0.458823529,2.275524799
B4_FL_TRIAL1_A,4,B4,FL,1,A,B4,3.6,2.705882353,1.882247896,1.013990127,-0.552467993,WN,1.7,WN_WN,WN,WN,B,BEFI,30,9,13,1/11/22,15,L,0.69,x,-0.5299,0.1363,0.000765,NA,Bad,N,N,Inverted; Might not be auditory,0.203357143,0.331071429,0.223928571,0.003357143,0.131071429,0.023928571,NA,0.073427733,N,0.257218343,Field L,Field L,Broad,-0.894117647,2.729042676
B4_FL_TRIAL2_B,4,B4,FL,2,B,B4,5.75,6.764705882,3.545163158,2.564058202,0.320761845,WN,1.7,WN_WN,WN,WN,B,BEFI,30,9,13,1/11/22,15,L,0.89,x,-0.577,0.378,0.00024,NA,Good,Y,N,"Inverted, Drifts into spot around 200s, not really there before this (cut out first 200s for both units)",0.2828,0.3559,0.3056,0.0828,0.1559,0.1056,0.08,0.423828125,N,0.655112652,Field L,Field L,Narrow,1.014705882,10.63559689
B4_FL_TRIAL3_A,4,B4,FL,3,A,B4,2,2.398190045,1.779513042,1.755885448,0.319487822,WN,1.7,WN_WN,WN,WN,B,BEFI,30,9,13,1/11/22,15,R,1.14,ok,-0.4909,0.0884,0.00048,NA,Bad,Y,N,Inverted; Lost sweet spot after 250s but keep whole trial,0.11075,0.571166667,0.21325,-0.08925,0.371166667,0.01325,0.05,0.123944997,N,0.180077409,Field L,Field L,Broad,0.398190045,1.877643783
B4_FL_TRIAL3_B,4,B4,FL,3,B,B4,0.692307692,1.176470588,0.854850414,1.440876319,0.280320588,WN,1.7,WN_WN,WN,WN,B,BEFI,30,9,13,1/11/22,15,R,1.14,ok,0.4589,0,0.0015,NA,Bad,Y,N,Fat and ugly; Lost sweet spot after 250s but keep whole trial,0.130583333,0.515583333,0.355666667,-0.069416667,0.315583333,0.155666667,0.01,0.812380364,N,0,Field L,Field L,Broad,0.484162896,2.952969841
B4_FL_TRIAL4_A,4,B4,FL,4,A,B4,1.866666667,1.882352941,1.684664726,1.023693602,0.00694194,WN,1.7,WN_WN,WN,WN,B,BEFI,30,9,13,1/11/22,15,R,1.27,x,-0.4791,0.1626,0.00048,NA,Good,N,N,Inverted,0.135769231,0.349384615,0.178538462,-0.064230769,0.149384615,-0.021461538,NA,0.977335508,N,0.339386349,Field L,Field L,Broad,0.015686274,5.007366398
B4_FL_TRIAL5_A,4,B4,FL,5,A,B4,4,5.714285714,2.581988897,2.193475849,0.437858312,WN,1.7,WN_WN,WN,WN,B,BEFI,30,9,13,1/11/22,15,R,1.34,x,-0.4321,0.0835,0.00048,NA,Bad,Y,N,Inverted; Lost spot after 385s,0.234,0.461166667,0.305666667,0.034,0.261166667,0.105666667,0.16,0.498194057,N,0.193242305,Field L,Field L,Broad,1.714285714,14.54417061
B4_FL_TRIAL6_A,4,B4,FL,6,A,B4,5.5,6.838235295,2.672612419,4.134867952,1.505800766,WN,1.7,WN_WN,WN,WN,B,BEFI,30,9,13,1/11/22,15,R,1,x,-0.653,0.147,0.000376,NA,Bad,Y,N,"Inverted, lost spot after 500s",0.191857143,0.361714286,0.208714286,-0.008142857,0.161714286,0.008714286,NA,0.109375,N,0.225114855,Field L,Field L,Narrow,1.338235295,3.342344294
B4_FL_TRIAL6_B,4,B4,FL,6,B,B4,3.25,5.882352941,2.187627547,2.352941177,1.219146769,WN,1.7,WN_WN,WN,WN,B,BEFI,30,9,13,1/11/22,15,R,1,x,0.5741,-0.0418,0.00126,NA,Bad,Y,N, lost spot after 500s,0.158,0.599857143,0.235285714,-0.042,0.399857143,0.035285714,0.06,0.0234375,Y,0.072809615,Field L,Field L,Broad,2.632352941,5.208261246
C1_FL_TRIAL10_A,4,C1,FL,10,A,C12,7.533333333,7.37254902,3.542933947,3.765668645,-0.036961956,WN,1.7,WN_WN,WN,WN,C,xfostered,23,2,10,10/24/21,15,L,1.39,x,-0.686,0.225,0.00054,NA,Good,N,N,STIM SET 2 Inverted,0.1802,0.291,0.1977,-0.0198,0.091,-0.0023,NA,0.864677554,N,0.327988338,Field L,Field L,Broad,-0.160784313,19.32432142
C1_FL_TRIAL10_B,4,C1,FL,10,B,C12,9.2,9.019607842,3.384840152,3.157323765,-0.036294424,WN,1.7,WN_WN,WN,WN,C,xfostered,23,2,10,10/24/21,15,L,1.39,x,-1.132,0.565,0.00024,NA,Good,N,N,STIM SET 2 Inverted,0.1627,0.2839,0.2258,-0.0373,0.0839,0.0258,NA,0.934082031,N,0.499116608,Field L,Field L,Narrow,-0.180392158,24.38960399
C1_FL_TRIAL2_A,3,C1,FL,2,A,C1,2.857142857,4.411764706,2.032699715,1.994802936,0.683140697,WN,1.7,WN_WN,WN,WN,C,xfostered,23,2,10,10/24/21,15,R,1.16,x,-0.918,0.48,0.000239765,NA,Good,N,N,Inverted,0.175692308,0.270076923,0.211384615,-0.024307692,0.070076923,0.011384615,0.045,0.041870117,Y,0.522875817,Field L,Field L,Narrow,1.554621849,5.346868159
C1_FL_TRIAL3_A,3,C1,FL,3,A,C1,1.5,3.025210084,1.091928428,1.150323533,1.275047018,WN,1.7,WN_WN,WN,WN,C,xfostered,23,2,10,10/24/21,15,R,1.21,x,-0.776,0.201,0.000179992,NA,Good,N,N,Inverted,0.163384615,0.276384615,0.177846154,-0.036615385,0.076384615,-0.022153846,0.01,0.003862949,Y,0.259020619,Field L,Field L,Narrow,1.525210084,1.495533508
C1_FL_TRIAL4_A,3,C1,FL,4,A,C1,2.4,2.352941176,1.91982142,1.491448685,-0.021020298,WN,1.7,WN_WN,WN,WN,C,xfostered,23,2,10,10/24/21,15,R,1.26,x,-0.695,0.199,0.000540091,NA,Good,Y,N,Inverted,0.128214286,0.257,0.151571429,-0.071785714,0.057,-0.048428571,NA,0.932093283,N,0.286330935,Field L,Field L,Broad,-0.047058824,5.045536333
C1_FL_TRIAL4_B,3,C1,FL,4,B,C1,2.2,3.490196078,1.61245155,2.77217538,0.517274041,WN,1.7,WN_WN,WN,WN,C,xfostered,23,2,10,10/24/21,15,R,1.26,x,-0.661,0.3,0.00018,NA,Good,Y,N,Inverted,0.088214286,0.419142857,0.136214286,-0.111785714,0.219142857,-0.063785714,0.075,0.083160929,N,0.453857791,Field L,Field L,Narrow,1.290196078,6.446351404
C1_FL_TRIAL5_A,3,C1,FL,5,A,C1,2,3.176470588,1.309307341,3.150532128,0.393660983,WN,1.7,WN_WN,WN,WN,C,xfostered,23,2,10,10/24/21,15,R,1.36,x,-0.546,0.331,0.00018,NA,Good,N,N,Inverted,0.178153846,0.450384615,0.223692308,-0.021846154,0.250384615,0.023692308,0.135,0.293188173,N,0.606227106,Field L,Field L,Narrow,1.176470588,9.060207608
C1_FL_TRIAL5_B,3,C1,FL,5,B,C1,2.333333333,2.235294118,1.2344268,1.070892929,-0.074402973,WN,1.7,WN_WN,WN,WN,C,xfostered,23,2,10,10/24/21,15,R,1.36,x,0.515,-0.0859,0.000239989,NA,Good,N,Y,Trough before peak,0.100769231,0.391076923,0.254692308,-0.099230769,0.191076923,0.054692308,NA,0.571892264,N,0.166796117,Field L,Field L,Narrow,-0.098039215,1.786697424
C1_FL_TRIAL6_A,3,C1,FL,6,A,C1,3.933333333,5.137254902,1.486446706,1.757220352,0.51472199,WN,1.7,WN_WN,WN,WN,C,xfostered,23,2,10,10/24/21,15,R,1.41,x,-0.644,0.422,0.000179999,NA,Good,N,N,Inverted,0.128769231,0.662384615,0.189923077,-0.071230769,0.462384615,-0.010076923,0.35,0.073543888,N,0.655279503,Field L,Field L,Narrow,1.203921569,5.435693964
C1_FL_TRIAL8_A,4,C1,FL,8,A,C12,4.133333333,3.333333333,2.695675549,1.895263846,-0.233290403,WN,1.7,WN_WN,WN,WN,C,xfostered,23,2,10,10/24/21,15,L,1.29,x,-1.217,0.244,0.000240001,NA,Good,N,N,STIM SET 2 Inverted,0.156642857,0.324428571,0.181571429,-0.043357143,0.124428571,-0.018428571,NA,0.55085448,N,0.200493016,Field L,Field L,Narrow,-0.8,11.6511188
C1_FL_TRIAL9_A,4,C1,FL,9,A,C12,6.4,7.568627451,3.224903099,2.403518045,0.416085766,WN,1.7,WN_WN,WN,WN,C,xfostered,23,2,10,10/24/21,15,L,1.34,x,-1.085,0.595,0.000240007,NA,Bad,N,N,STIM SET 2 Inverted,0.154692308,0.338923077,0.170923077,-0.045307692,0.138923077,-0.029076923,NA,0.181794921,N,0.548387097,Field L,Field L,Narrow,1.168627451,8.369027296
C1_FL_TRIAL9_B,4,C1,FL,9,B,C12,2.733333333,2.392156863,1.486446706,1.165212238,-0.243543427,WN,1.7,WN_WN,WN,WN,C,xfostered,23,2,10,10/24/21,15,L,1.34,x,-1.154,0.535,0.000538728,NA,Bad,N,N,STIM SET 2 Inverted,0.152076923,0.207,0.168461538,-0.047923077,0.007,-0.031538462,NA,0.887042291,N,0.463604853,Field L,Field L,Broad,-0.34117647,2.05361015
C1_NCM_TRIAL2_A,3,C1,NCM,2,A,C1,3.785714286,2.899159664,2.293085641,1.5727295,-0.348409632,WN,1.7,WN_WN,WN,WN,C,xfostered,23,2,10,10/24/21,15,R,1.58,x,0.4014,-0.0498,0.000239973,NA,Good,N,Y,Actually had double hyperpolarization hump but I measured the first one,0.106076923,0.578153846,0.167692308,-0.093923077,0.378153846,-0.032307692,NA,0.300170805,N,0.12406577,NS1,Narrow,NCM,-0.886554622,6.52519243
C1_NCM_TRIAL3_A,3,C1,NCM,3,A,C1,2.714285714,1.890756302,1.728875643,0.928035278,-0.384656979,WN,1.7,WN_WN,WN,WN,C,xfostered,23,2,10,10/24/21,15,R,1.63,x,0.3466,-0.06,0.000540002,NA,Good,N,N,,0.145153846,0.468230769,0.273230769,-0.054846154,0.268230769,0.073230769,NA,0.209062103,N,0.173110214,Broad,Broad,NCM,-0.823529412,4.511616411
C1_NCM_TRIAL6_A,3,C1,NCM,6,A,C1,2.466666667,1.764705882,1.807392228,1.507929281,-0.316498961,WN,1.7,WN_WN,WN,WN,C,xfostered,23,2,10,10/24/21,15,R,1.78,x,0.3386,-0.0517,0.00107999,NA,Bad,N,N,"Might not be auditory, maybe likes Stim1?",0.148846154,0.293615385,0.257384615,-0.051153846,0.093615385,0.057384615,NA,0.285881445,N,0.152687537,Broad,Broad,NCM,-0.701960785,4.93585544
C1_NCM_TRIAL7_A,3,C1,NCM,7,A,C1,3.6,3.607843137,2.720294102,1.804408654,0.003506043,WN,1.7,WN_WN,WN,WN,C,xfostered,23,2,10,10/24/21,15,L,1.21,x,0.4398,-0.0647,0.00126,NA,Good,N,Y,Double-troughed (could be a narrow unit if measure the other one…),0.208142857,0.191214286,0.245214286,0.008142857,-0.008785714,0.045214286,NA,0.753375133,N,0.147112324,Broad,Broad,NCM,0.007843137,5.33373318
C1_NCM_TRIAL9_A,4,C1,NCM,9,A,C12,1.8,2,1.61245155,0.825926883,0.111549124,WN,1.7,WN_WN,WN,WN,C,xfostered,23,2,10,10/24/21,15,L,1.3,x,0.494,-0.1259,9.00E-04,NA,Good,N,N,STIM SET 2 Only likes 2 of the stimuli?,0.146923077,0.241615385,0.159307692,-0.053076923,0.041615385,-0.040692308,NA,0.589122222,N,0.2548583,Broad,Broad,NCM,0.2,3.204521338
C2_NCM_TRIAL1_A,3,C2,NCM,1,A,C22,0.833333333,1.862745098,0.98319208,1.013177309,0.755395683,WN,1.7,WN_WN,WN,WN,C,normal,22,2,12.6,10/23/21,15,R,1.17,ok,0.4971,-0.0928,0.001020215,NA,Good,N,N,,0.445,0.5958,0.6374,0.245,0.3958,0.4374,0.25,0.21875,N,0.18668276,Broad,Broad,NCM,1.029411765,1.824394464
C2_NCM_TRIAL1_B,3,C2,NCM,1,B,C22,1,2.745098039,0.894427191,1.809879335,1.319423784,WN,1.7,WN_WN,WN,WN,C,normal,22,2,12.6,10/23/21,15,R,1.17,ok,-0.5291,0,0.00132,NA,Bad,N,N,"Inverted, really fat",0.2,0.2972,0.2782,0,0.0972,0.0782,0.115,0.0625,N,0,Broad,Broad,NCM,1.745098039,2.023836986
C4_FL_TRIAL3_A,3,C4,FL,3,A,C4,1.4,2.509803921,1.121223821,1.053831994,0.724834061,WN,1.7,WN_WN,WN,WN,C,xfostered,26,3,8.3,10/28/21,15,R,1.08,x,-0.927,0.169,0.000598735,NA,Good,N,N,Inverted,0.160857143,0.486,0.276285714,-0.039142857,0.286,0.076285714,0.045,0.024664187,Y,0.182308522,Field L,Field L,Broad,1.109803921,2.335347944
C4_FL_TRIAL3_B,3,C4,FL,3,B,C4,0.933333333,2.470588235,1.162919151,1.666749051,0.76008969,WN,1.7,WN_WN,WN,WN,C,xfostered,26,3,8.3,10/28/21,15,R,1.08,bad,0.82,-0.077,0.00126,NA,Bad,N,N,,0.2165,0.515571429,0.2665,0.0165,0.315571429,0.0665,0.01,0.018350515,Y,0.093902439,Field L,Field L,Broad,1.537254902,4.07467897
C4_FL_TRIAL3_C,3,C4,FL,3,C,C4,0.8,2.823529412,0.676123404,1.575266064,1.159578586,WN,1.7,WN_WN,WN,WN,C,xfostered,26,3,8.3,10/28/21,15,R,1.08,ok,-0.868,0.088,0.000180001,NA,Good,N,N,inverted,0.181714286,0.573928571,0.278928571,-0.018285714,0.373928571,0.078928571,0.265,0.001578546,Y,0.101382488,Field L,Field L,Narrow,2.023529412,3.025051903
C4_FL_TRIAL4_A,3,C4,FL,4,A,C4,2.8,9.176470588,1.521277659,3.49987642,1.814543908,WN,1.7,WN_WN,WN,WN,C,xfostered,26,3,8.3,10/28/21,15,R,1.13,x,-0.938,0.31,0.000239985,NA,Good,N,N,inverted,0.460357143,0.558642857,0.536,0.260357143,0.358642857,0.336,0.02,6.10E-05,Y,0.330490405,Field L,Field L,Narrow,6.376470588,12.43174164
C4_FL_TRIAL5_A,3,C4,FL,5,A,C4,2.785714286,6.974789916,1.42389344,2.22332043,1.741292292,WN,1.7,WN_WN,WN,WN,C,xfostered,26,3,8.3,10/28/21,15,R,1.18,x,-0.4775,0.054,0.0005999,NA,Good,N,N,Inverted,0.246692308,0.383615385,0.283153846,0.046692308,0.183615385,0.083153846,0.055,0.00109394,Y,0.113089005,Field L,Field L,Broad,4.18907563,5.836469883
C4_FL_TRIAL5_B,3,C4,FL,5,B,C4,3.928571429,8.739495798,2.268997939,3.042220366,1.268537072,WN,1.7,WN_WN,WN,WN,C,xfostered,26,3,8.3,10/28/21,15,R,1.18,x,0.449,0.0164,0.001,NA,Duplicate,N,N,,0.291153846,0.339153846,0.362307692,0.091153846,0.139153846,0.162307692,0.02,0.000610352,Y,0.036525612,Field L,Field L,Broad,4.810924369,14.31101264
C4_FL_TRIAL6_A,3,C4,FL,6,A,C4,0.733333333,2.274509804,0.961150105,1.349954077,1.004109295,WN,1.7,WN_WN,WN,WN,C,xfostered,26,3,8.3,10/28/21,15,R,1.23,ok,-0.689,0.121,0.000720211,NA,Good,N,N,Inverted,0.191833333,0.32375,0.243,-0.008166667,0.12375,0.043,0.025,0.004698172,Y,0.175616836,Field L,Field L,Broad,1.541176471,2.369642446
C4_FL_TRIAL7_A,3,C4,FL,7,A,C4,2.266666667,4.196078431,2.016597795,2.14255504,0.740967457,WN,1.7,WN_WN,WN,WN,C,xfostered,26,3,8.3,10/28/21,15,R,1.28,x,-0.516,0.0747,0.000540003,NA,Good,N,N,Inverted,0.228846154,0.351846154,0.274846154,0.028846154,0.151846154,0.074846154,0.125,0.024838727,Y,0.144767442,Field L,Field L,Broad,1.929411764,6.86698962
C4_FL_TRIAL7_B,3,C4,FL,7,B,C4,1.8,3.058823529,1.207121724,1.902206228,0.535447668,WN,1.7,WN_WN,WN,WN,C,xfostered,26,3,8.3,10/28/21,15,R,1.28,x,0.5016,0.04,0.000240046,NA,Duplicate,N,N,Trough before peak,0.425923077,0.467230769,0.484461538,0.225923077,0.267230769,0.284461538,0.035,0.181794921,N,0.079744817,Field L,Field L,Narrow,1.258823529,5.474417532
C4_FL_TRIAL8_A,3,C4,FL,8,A,C4,1.666666667,3.215686275,1.496026483,1.570027387,0.764127973,WN,1.7,WN_WN,WN,WN,C,xfostered,26,3,8.3,10/28/21,15,R,1.38,ok,-0.4688,0.0677,0.0011,NA,Bad,N,N,Low S:N,0.308615385,0.319769231,0.242923077,0.108615385,0.119769231,0.042923077,0.11,0.015743346,Y,0.144411263,Field L,Field L,Broad,1.549019608,4.128104576
C4_FL_TRIAL9_A,3,C4,FL,9,A,C4,6,15.46218487,2.908872369,3.274574962,2.351980055,WN,1.7,WN_WN,WN,WN,C,xfostered,26,3,8.3,10/28/21,15,R,1.43,x,-0.521,0.0849,0.000664,NA,Good,N,N,"Inverted, reclassified",0.313615385,0.472461538,0.355769231,0.113615385,0.272461538,0.155769231,0.085,0.00012207,Y,0.162955854,Field L,Field L,Broad,9.46218487,16.30146176
C4_NCM_TRIAL5_A,3,C4,NCM,5,A,C4,1.071428571,1.344537815,0.82874193,1.163470514,0.225402708,WN,1.7,WN_WN,WN,WN,C,xfostered,26,3,8.3,10/28/21,15,R,1.12,ok,0.3306,-0.1224,0.00126,NA,Good,N,N,Fat shape,0.182153846,0.424153846,0.313692308,-0.017846154,0.224153846,0.113692308,0.045,0.50441094,N,0.370235935,Broad,Broad,NCM,0.273109244,1.498570016
C4_NCM_TRIAL6_A,3,C4,NCM,6,A,C4,0.933333333,0.470588235,1.099783528,0.455645099,-0.376884435,WN,1.7,WN_WN,WN,WN,C,xfostered,26,3,8.3,10/28/21,15,R,1.18,ok,-0.316,0.01396,0.00126,NA,Bad,N,N,Inverted and fat,0.123166667,0.562916667,0.278666667,-0.076833333,0.362916667,0.078666667,NA,0.229958547,N,0.044177215,Broad,Broad,NCM,-0.462745098,1.495209535
C4_NCM_TRIAL6_B,3,C4,NCM,6,B,C4,1.2,1.254901961,1.567527626,0.765890055,0.035045118,WN,1.7,WN_WN,WN,WN,C,xfostered,26,3,8.3,10/28/21,15,R,1.18,ok,0.3413,-0.0738,3.00E-04,NA,Good,N,N,,0.31675,0.733083333,0.408583333,0.11675,0.533083333,0.208583333,0.07,0.571512646,N,0.216232054,NS1,Narrow,NCM,0.054901961,2.480030757
C4_NCM_TRIAL7_A,3,C4,NCM,7,A,C4,0.733333333,0.62745098,0.798808637,0.565382414,-0.126245041,WN,1.7,WN_WN,WN,WN,C,xfostered,26,3,8.3,10/28/21,15,R,1.25,x,-0.33724,0,0.001321008,NA,Bad,N,N,Inverted with fat shape,0.160923077,0.321461538,0.287230769,-0.039076923,0.121461538,0.087230769,0.065,0.833584636,N,0,Broad,Broad,NCM,-0.105882353,0.716124567
C4_NCM_TRIAL7_B,3,C4,NCM,7,B,C4,2.333333333,4.549019608,2.581988897,3.255981732,0.77824029,WN,1.7,WN_WN,WN,WN,C,xfostered,26,3,8.3,10/28/21,15,R,1.25,x,0.37,-0.1276,3.00E-04,NA,Good,N,N,,0.242692308,0.446384615,0.297923077,0.042692308,0.246384615,0.097923077,0.21,0.0134686,Y,0.344864865,NS1,Narrow,NCM,2.215686275,8.639753945
C4_NCM_TRIAL8_A,3,C4,NCM,8,A,C4,2.266666667,2.392156863,1.869555588,1.414330069,0.068188108,WN,1.7,WN_WN,WN,WN,C,xfostered,26,3,8.3,10/28/21,15,R,1.35,ok,0.2288,-0.0119,0.0012,NA,Bad,N,N,Low S:N,0.228230769,0.287307692,0.262307692,0.028230769,0.087307692,0.062307692,0.025,0.842398284,N,0.05201049,Broad,Broad,NCM,0.125490196,3.503052672
C4_NCM_TRIAL9_A,3,C4,NCM,9,A,C4,3.071428571,5.420168067,1.859043828,2.215181863,0.744336818,WN,1.7,WN_WN,WN,WN,C,xfostered,26,3,8.3,10/28/21,15,R,1.4,x,0.2168,0.07559,3.00E-04,NA,Good,N,N,,0.461923077,0.564076923,0.517,0.261923077,0.364076923,0.317,0.035,0.032767031,Y,0.348662362,NS1,Narrow,NCM,2.348739496,9.800526093
C4_NCM_TRIAL9_B,3,C4,NCM,9,B,C4,2.785714286,3.277310924,1.928673176,1.812538556,0.26112784,WN,1.7,WN_WN,WN,WN,C,xfostered,26,3,8.3,10/28/21,15,R,1.4,x,-0.2208,2.00E-04,0.00132,NA,Bad,N,N,Inverted and fat,0.245230769,0.324230769,0.326384615,0.045230769,0.124230769,0.126384615,0.045,0.414216178,N,0.000905797,Broad,Broad,NCM,0.491596638,3.755614011
D1_FL_TRIAL1_A,4,D1,FL,1,A,D1,3.066666667,2.745098039,1.162919151,1.364522348,-0.189224467,WN,1.7,WN_WN,WN,WN,D,normal,21,1,12.8,12/18/21,15,L,1.2,bad,-1.158,0.311,0.000179999,NA,Good,N,N,Inverted but beautiful,0.186714286,0.270214286,0.216357143,-0.013285714,0.070214286,0.016357143,NA,0.378482364,N,0.268566494,Field L,Field L,Narrow,-0.321568628,2.895440216
D1_FL_TRIAL2_A,4,D1,FL,2,A,D1,2.866666667,3.254901961,1.846489591,1.601202382,0.297413224,WN,1.7,WN_WN,WN,WN,D,normal,21,1,12.8,12/18/21,15,L,1.25,x,-1.018,0.065,0.00126,NA,Good,N,N,,0.140785714,0.699214286,0.208214286,-0.059214286,0.499214286,0.008214286,NA,0.409725889,N,0.063850688,Field L,Field L,Broad,0.388235294,1.962076125
D1_FL_TRIAL2_B,4,D1,FL,2,B,D1,0.533333333,1.098039216,0.743223353,0.939774867,0.460724437,WN,1.7,WN_WN,WN,WN,D,normal,21,1,12.8,12/18/21,15,L,1.25,ok,0.918,-0.041,0.0012,NA,Duplicate,N,N,,0.095714286,0.601928571,0.290857143,-0.104285714,0.401928571,0.090857143,NA,0.18329636,N,0.044662309,Field L,Field L,Broad,0.564705883,1.491487889
D1_FL_TRIAL3_A,4,D1,FL,3,A,D1,3.466666667,4.156862745,1.641718032,1.905667934,0.289290954,WN,1.7,WN_WN,WN,WN,D,normal,21,1,12.8,12/18/21,15,L,1.31,ok?,-0.807,0.043,0.00126,NA,Bad,N,N,Double peaked,0.109928571,0.336928571,0.152571429,-0.090071429,0.136928571,-0.047428571,0.105,0.181530374,N,0.053283767,Field L,Field L,Broad,0.690196078,5.706328336
D1_FL_TRIAL3_B,4,D1,FL,3,B,D1,2.4,2.549019608,1.352246808,1.417820811,0.06830777,WN,1.7,WN_WN,WN,WN,D,normal,21,1,12.8,12/18/21,15,L,1.31,x,0.789,-0.077,0.00042,NA,Good,N,Y,Trough before peak,0.140571429,0.280071429,0.191642857,-0.059428571,0.080071429,-0.008357143,NA,0.798153497,N,0.097591888,Field L,Field L,Broad,0.149019608,4.680907344
D1_FL_TRIAL4_A,4,D1,FL,4,A,D1,1.733333333,2.784313725,1.437590577,1.206889653,0.579075124,WN,1.7,WN_WN,WN,WN,D,normal,21,1,12.8,12/18/21,15,L,1.37,x,-1.304,0.482,0.000479999,NA,Good,N,N,,0.177357143,0.272214286,0.243571429,-0.022642857,0.072214286,0.043571429,0.2,0.049873137,Y,0.369631902,Field L,Field L,Broad,1.050980392,3.293594772
D1_FL_TRIAL4_B,4,D1,FL,4,B,D1,1.866666667,1.960784314,0.915475416,1.551021647,0.068659642,WN,1.7,WN_WN,WN,WN,D,normal,21,1,12.8,12/18/21,15,L,1.37,bad,-1.213,0.259,0.00018,NA,Bad,N,N,,0.102785714,0.233571429,0.184071429,-0.097214286,0.033571429,-0.015928571,0.18,0.798193348,N,0.213520198,Field L,Field L,Narrow,0.094117647,1.95561707
D1_FL_TRIAL5_A,4,D1,FL,5,A,D1,3.6,4.078431373,2.501428163,1.866353574,0.154858608,WN,1.7,WN_WN,WN,WN,D,normal,21,1,12.8,12/18/21,15,L,1.37,x,-1.029,0.403,0.00036,NA,Good,N,N,,0.170214286,0.174142857,0.193357143,-0.029785714,-0.025857143,-0.006642857,0.35,0.561401367,N,0.391642371,Field L,Field L,Narrow,0.478431373,9.514586698
D1_FL_TRIAL7_A,4,D1,FL,7,A,D1,6,3.991596638,5.320497374,2.642566035,-0.58085185,WN,1.7,WN_WN,WN,WN,D,normal,21,1,12.8,12/18/21,15,R,1.37,x,-0.5426,0.0215,0.00126,NA,Good,N,N,,0.07,0.362,0.147230769,-0.13,0.162,-0.052769231,NA,0.063973783,N,0.039624032,Field L,Field L,Broad,-2.008403362,13.44234165
D1_FL_TRIAL8_A,4,D1,FL,8,A,D1,0.642857143,0.588235294,1.008208072,0.515916482,-0.059989816,WN,1.7,WN_WN,WN,WN,D,normal,21,1,12.8,12/18/21,15,R,1.42,ok,-0.979,0.169,6.00E-04,NA,Bad,N,N,,0.146230769,0.342769231,0.343769231,-0.053769231,0.142769231,0.143769231,0.385,0.721107923,N,0.172625128,Field L,Field L,Broad,-0.054621849,0.854900784
D1_FL_TRIAL8_B,4,D1,FL,8,B,D1,0.785714286,0.924369748,1.311403912,1.706651188,0.191089646,WN,1.7,WN_WN,WN,WN,D,normal,21,1,12.8,12/18/21,15,R,1.42,ok,0.851,-0.089,0.001259559,NA,Good,N,N,,0.166153846,0.441846154,0.372692308,-0.033846154,0.241846154,0.172692308,0.295,0.918067021,N,0.104582844,Field L,Field L,Broad,0.138655462,0.796147871
D1_NCM_TRIAL1_A,4,D1,NCM,1,A,D1,3.066666667,2.666666667,2.282438128,1.38608769,-0.211083912,WN,1.7,WN_WN,WN,WN,D,normal,21,1,12.8,12/18/21,15,L,1.58,x,0.4663,-0.0974,3.00E-04,NA,Good,N,N,,0.173142857,0.3285,0.243285714,-0.026857143,0.1285,0.043285714,NA,0.575520016,N,0.208878404,NS1,Narrow,NCM,-0.4,3.795247982
D1_NCM_TRIAL1_B,4,D1,NCM,1,B,D1,0.533333333,0.352941176,0.639940473,0.43340494,-0.228222708,WN,1.7,WN_WN,WN,WN,D,normal,21,1,12.8,12/18/21,15,L,1.58,ok?,-0.4399,3.00E-04,0.0018578,NA,Bad,N,N,Inverted and fat,0.174142857,0.319571429,0.247142857,-0.025857143,0.119571429,0.047142857,0.03,0.560789938,N,0.000681973,Broad,Broad,NCM,-0.180392157,0.620284506
D1_NCM_TRIAL2_A,4,D1,NCM,2,A,D1,5.133333333,4.470588235,2.669046557,3.435731525,-0.165674241,WN,1.7,WN_WN,WN,WN,D,normal,21,1,12.8,12/18/21,15,L,1.68,x,0.37,-0.1172,0.00072,NA,Good,N,N,,0.148285714,0.362357143,0.173785714,-0.051714286,0.162357143,-0.026214286,0.12,0.460211098,N,0.316756757,Broad,Broad,NCM,-0.662745098,16.11324875
D1_NCM_TRIAL3_A,4,D1,NCM,3,A,D1,1.466666667,1.490196078,0.915475416,0.885614886,0.023676213,WN,1.7,WN_WN,WN,WN,D,normal,21,1,12.8,12/18/21,15,L,1.78,ok,0.4129,-0.0572,0.00126,NA,Bad,N,N,,0.148785714,0.306214286,0.289071429,-0.051214286,0.106214286,0.089071429,0.375,0.931983712,N,0.138532332,Broad,Broad,NCM,0.023529411,1.022745098
D1_NCM_TRIAL4_A,4,D1,NCM,4,A,D1,2.666666667,1.882352941,1.838736626,1.559497238,-0.515348518,WN,1.7,WN_WN,WN,WN,D,normal,21,1,12.8,12/18/21,15,L,1.88,ok,0.4125,-0.0352,0.00029996,NA,Bad,N,N,,0.117571429,0.213428571,0.149571429,-0.082428571,0.013428571,-0.050428571,NA,0.168823242,N,0.085333333,NS1,Narrow,NCM,-0.784313726,2.523490965
D1_NCM_TRIAL5_A,4,D1,NCM,5,A,D1,2.666666667,2.62745098,2.023669463,2.154059803,-0.015348383,WN,1.7,WN_WN,WN,WN,D,normal,21,1,12.8,12/18/21,15,L,1.88,x,0.3144,-0.0592,0.00126,NA,Bad,N,N,Low S:N,0.158928571,0.267642857,0.281142857,-0.041071429,0.067642857,0.081142857,NA,0.977340078,N,0.188295165,Broad,Broad,NCM,-0.039215687,6.636524413
D1_NCM_TRIAL7_A,4,D1,NCM,7,A,D1,1.333333333,1.274509804,1.632993162,0.865858909,-0.065449786,WN,1.7,WN_WN,WN,WN,D,normal,21,1,12.8,12/18/21,15,R,1.26,x,0.4859,-0.0845,0.001078804,NA,Bad,N,N,,0.1342,0.6842,0.3566,-0.0658,0.4842,0.1566,NA,1,N,0.173904095,Broad,Broad,NCM,-0.058823529,1.147635525
D4_FL_TRIAL10_A,3,D4,FL,10,A,D4,1.875,2.426470588,1.552647509,2.048292394,0.323707022,WN,1.7,WN_WN,WN,WN,D,normal,22,2,12.3,12/19/21,15,R,1.03,x,-0.4997,0.0886,0.00126,NA,Bad,N,N,Inverted; Lost spot after 461s (9 presentations/stimulus),0.133,0.58,0.268,-0.067,0.38,0.068,0.015,0.55411313,N,0.177306384,Field L,Field L,Broad,0.551470588,3.262056661
D4_FL_TRIAL10_B,3,D4,FL,10,B,D4,1.5,0.735294118,1.195228609,0.608881376,-0.687208476,WN,1.7,WN_WN,WN,WN,D,normal,22,2,12.3,12/19/21,15,R,1.03,ok,0.4431,-6.00E-04,0.00138,NA,Duplicate,N,N,"Inverted, Lost spot after 461s (9 presentations/stimulus)",0.127714286,0.934857143,0.466571429,-0.072285714,0.734857143,0.266571429,0.18,0.10646594,N,0.001354096,Field L,Field L,Broad,-0.764705882,1.280276817
D4_FL_TRIAL11_A,3,D4,FL,11,A,D4,0.625,2.426470588,0.744023809,1.015816589,1.332249922,WN,1.7,WN_WN,WN,WN,D,normal,22,2,12.3,12/19/21,15,R,1.15,x,-0.5546,0.0737,0.000224,NA,Bad,Y,N,Lost spot after436s (8 presentations/stimulus),0.240714286,0.879857143,0.287285714,0.040714286,0.679857143,0.087285714,0.29,0.029772876,Y,0.132888568,Field L,Field L,Narrow,1.801470588,1.773302336
D4_FL_TRIAL2_A,3,D4,FL,2,A,D4,2.533333333,8.862745097,1.684664726,2.709046986,2.022322761,WN,1.7,WN_WN,WN,WN,D,normal,22,2,12.3,12/19/21,15,L,1.07,x,-0.905,0.085,0.000311,NA,Good,N,N,Inverted,0.190357143,0.329142857,0.242785714,-0.009642857,0.129142857,0.042785714,0.065,6.10E-05,Y,0.093922652,Field L,Field L,Narrow,6.329411764,9.77568627
D4_FL_TRIAL2_B,3,D4,FL,2,B,D4,1.066666667,8.31372549,2.016597795,2.319794537,2.340716544,WN,1.7,WN_WN,WN,WN,D,normal,22,2,12.3,12/19/21,15,L,1.07,x,0.805,-0.4,0.00018,NA,Good,N,Y,trough before peak,0.226214286,0.3165,0.237714286,0.026214286,0.1165,0.037714286,0.01,0.000881237,Y,0.49689441,Field L,Field L,Narrow,7.247058823,9.534579007
D4_FL_TRIAL3_A,3,D4,FL,3,A,D4,3.2,12.39215686,2.336052837,3.802246303,2.186190796,WN,1.7,WN_WN,WN,WN,D,normal,22,2,12.3,12/19/21,15,L,1.12,x,-0.903,0.392,0.00024,NA,Good,N,N,Inverted,0.115071429,0.886428571,0.233142857,-0.084928571,0.686428571,0.033142857,0.055,6.10E-05,Y,0.434108527,Field L,Field L,Narrow,9.19215686,17.73954634
D4_FL_TRIAL3_B,3,D4,FL,3,B,D4,1.933333333,8.82352941,1.334523279,2.890316557,2.752569256,WN,1.7,WN_WN,WN,WN,D,normal,22,2,12.3,12/19/21,15,L,1.12,x,0.857,-0.15,0.00024,NA,Duplicate,N,Y,"Trough before peak; if firing rate doesn't fit with narrows, than the trough is actually the thing after the peak and it's a broad unit",0.142714286,0.414785714,0.193571429,-0.057285714,0.214785714,-0.006428571,0.115,0.000721126,Y,0.175029172,Field L,Field L,Narrow,6.890196077,6.478831212
D4_FL_TRIAL4_A,3,D4,FL,4,A,D4,1.4,4.509803922,0.736788398,1.27073347,1.95977757,WN,1.7,WN_WN,WN,WN,D,normal,22,2,12.3,12/19/21,15,L,1.17,ok,-0.917,0.467,0.000419993,NA,Good,N,N,,0.171,0.3095,0.185642857,-0.029,0.1095,-0.014357143,0.11,0.000722919,Y,0.509269357,Field L,Field L,Broad,3.109803922,2.484367551
D4_FL_TRIAL4_B,3,D4,FL,4,B,D4,0.8,4.156862745,1.014185106,1.563717807,1.869142029,WN,1.7,WN_WN,WN,WN,D,normal,22,2,12.3,12/19/21,15,L,1.17,ok,0.838,-0.051,0.00066,NA,Good,N,N,,0.192071429,0.251428571,0.212571429,-0.007928571,0.051428571,0.012571429,0.075,0.000715765,Y,0.060859189,Field L,Field L,Broad,3.356862745,3.226512879
D4_FL_TRIAL6_A,3,D4,FL,6,A,D4,1.733333333,6.078431373,1.533747356,1.643854426,2.082473428,WN,1.7,WN_WN,WN,WN,D,normal,22,2,12.3,12/19/21,15,L,1.27,x,0.501,-0.0058,0.00054,NA,Bad,N,N,,0.278461538,0.235692308,0.287384615,0.078461538,0.035692308,0.087384615,0.065,0.000887625,Y,0.011576846,Field L,Field L,Broad,4.34509804,4.377793156
D4_FL_TRIAL6_B,3,D4,FL,6,B,D4,0.8,4.784313726,0.941123948,1.845043415,1.756250369,WN,1.7,WN_WN,WN,WN,D,normal,22,2,12.3,12/19/21,15,L,1.27,ok,-0.5186,0.0384,0.00024,NA,Bad,N,N,,0.387384615,0.204153846,0.376923077,0.187384615,0.004153846,0.176923077,0.085,0.000885492,Y,0.074045507,Field L,Field L,Narrow,3.984313726,5.070572857
D4_FL_TRIAL7_A,3,D4,FL,7,A,D4,1.4,4.627450981,1.4040757,2.048191837,2.287470583,WN,1.7,WN_WN,WN,WN,D,normal,22,2,12.3,12/19/21,15,L,1.32,ok,-0.5699,0.0601,0.001147,NA,Duplicate,N,N,,0.290214286,0.199214286,0.284285714,0.090214286,-0.000785714,0.084285714,0.12,0.000710431,Y,0.105457098,Field L,Field L,Broad,3.227450981,2.241691657
D4_FL_TRIAL7_B,3,D4,FL,7,B,D4,2.066666667,4.745098039,2.520393015,2.807611527,0.942176905,WN,1.7,WN_WN,WN,WN,D,normal,22,2,12.3,12/19/21,15,L,1.32,x,0.5548,-0.0067,0.001259,NA,Good,N,N,,0.212571429,0.207357143,0.208928571,0.012571429,0.007357143,0.008928571,0.065,0.0114734,Y,0.012076424,Field L,Field L,Broad,2.678431372,8.428542869
D4_FL_TRIAL8_A,3,D4,FL,8,A,D4,1.8,4.588235294,1.85933936,2.157881094,0.931086879,WN,1.7,WN_WN,WN,WN,D,normal,22,2,12.3,12/19/21,15,L,1.37,x,0.5319,-0.0054,0.0012588,NA,Good,N,N,,0.218384615,0.124615385,0.189692308,0.018384615,-0.075384615,-0.010307692,0.01,0.005866157,Y,0.010152284,Field L,Field L,Broad,2.788235294,8.874648213
D4_FL_TRIAL8_B,3,D4,FL,8,B,D4,2,4.470588235,1.812653934,1.504647603,1.565475382,WN,1.7,WN_WN,WN,WN,D,normal,22,2,12.3,12/19/21,15,L,1.37,x,-0.5499,0.0467,0.000839999,NA,Good,N,N,Inverted,0.273538462,0.168076923,0.272692308,0.073538462,-0.031923077,0.072692308,0.095,0.001314143,Y,0.084924532,Field L,Field L,Broad,2.470588235,2.669896194
D4_FL_TRIAL9_A,3,D4,FL,9,A,D4,1,3.85620915,1,2.123177238,1.173368961,WN,1.7,WN_WN,WN,WN,D,normal,22,2,12.3,12/19/21,15,R,0.98,x,-0.706,0.102,0.00018,NA,Bad,Y,N,"Inverted, Lost spot after 513s (10+ presentations/stimulus)",0.150428571,0.673714286,0.225142857,-0.049571429,0.473714286,0.025142857,0.15,0.01953125,Y,0.144475921,Field L,Field L,Narrow,2.85620915,5.810927421
D4_FL_TRIAL9_B,3,D4,FL,9,B,D4,0.444444444,1.111111111,0.726483157,0.994989369,0.799367149,WN,1.7,WN_WN,WN,WN,D,normal,22,2,12.3,12/19/21,15,R,0.98,x,0.5282,-1.00E-04,0.00132,NA,Bad,Y,N,Lost spot after 513s (10+ presentations/stimulus),0.048571429,0.867285714,0.361714286,-0.151428571,0.667285714,0.161714286,NA,0.078578551,N,0.000189322,Field L,Field L,Broad,0.666666667,0.76816609
D4_NCM_TRIAL10_A,3,D4,NCM,10,A,D4,10,1.102941177,22.37345366,1.386236276,-0.446251582,WN,1.7,WN_WN,WN,WN,D,normal,22,2,12.3,12/19/21,15,R,1.02,x,0.3425,-0.0763,9.00E-04,NA,Bad,Y,N,"Lost spot after 461s (9 presentations/stimulus), reclassified so may have too high spike rate for broad neuron, also COULD be movement spikes?",0.103,0.866857143,0.388285714,-0.097,0.666857143,0.188285714,NA,0.446872821,N,0.222773723,Broad,Broad,NCM,-8.897058823,402.7696799
D4_NCM_TRIAL11_A,3,D4,NCM,11,A,D4,0.375,1.764705882,0.744023809,1.333992258,1.49422289,WN,1.7,WN_WN,WN,WN,D,normal,22,2,12.3,12/19/21,15,R,1.27,x,0.3087,-0.0697,0.00048,NA,Bad,Y,N,Lost spot after436s (8 presentations/stimulus),0.258571429,0.775142857,0.277714286,0.058571429,0.575142857,0.077714286,0.235,0.013911159,Y,0.225785552,Broad,Broad,NCM,1.389705882,1.012056661
D4_NCM_TRIAL2_A,3,D4,NCM,2,A,D4,1.866666667,1.137254902,1.187233679,0.646931487,-0.480373933,WN,1.7,WN_WN,WN,WN,D,normal,22,2,12.3,12/19/21,15,L,1.17,x,0.3394,-0.0388,0.00119897,NA,Good,N,N,,0.155785714,0.741428571,0.292285714,-0.044214286,0.541428571,0.092285714,0.06,0.083036623,N,0.114319387,Broad,Broad,NCM,-0.729411765,2.265651672
D4_NCM_TRIAL2_B,3,D4,NCM,2,B,D4,1.866666667,0.745098039,1.959105724,0.607526799,-0.617997907,WN,1.7,WN_WN,WN,WN,D,normal,22,2,12.3,12/19/21,15,L,1.17,x,-0.33461,0.00035,0.00132,NA,Duplicate,N,N,Inverted,0.141642857,0.630714286,0.429714286,-0.058357143,0.430714286,0.229714286,0.05,0.035974995,Y,0.001045994,Broad,Broad,NCM,-1.121568628,3.33585544
D4_NCM_TRIAL3_A,3,D4,NCM,3,A,D4,1.666666667,1.333333333,0.975900073,0.815890946,-0.247197791,WN,1.7,WN_WN,WN,WN,D,normal,22,2,12.3,12/19/21,15,L,1.27,x,0.3503,-0.0421,0.001259953,NA,Good,N,N,,0.401285714,0.6985,0.547214286,0.201285714,0.4985,0.347214286,0.03,0.442124706,N,0.120182701,Broad,Broad,NCM,-0.333333334,1.797770088
D4_NCM_TRIAL3_B,3,D4,NCM,3,B,D4,1.333333333,0.666666667,1.496026483,0.698372752,-0.435068706,WN,1.7,WN_WN,WN,WN,D,normal,22,2,12.3,12/19/21,15,L,1.27,x,-0.3598,1.00E-04,0.0013813,NA,Good,N,N,Inverted,0.161857143,0.742571429,0.537285714,-0.038142857,0.542571429,0.337285714,NA,0.125798086,N,0.000277932,Broad,Broad,NCM,-0.666666666,2.361091888
D4_NCM_TRIAL4_A,3,D4,NCM,4,A,D4,2.666666667,1.647058823,1.799470822,1.300214819,-0.437136662,WN,1.7,WN_WN,WN,WN,D,normal,22,2,12.3,12/19/21,15,L,1.32,x,0.4031,-0.1404,0.000299238,NA,Good,N,N,,0.179071429,0.907285714,0.267857143,-0.020928571,0.707285714,0.067857143,NA,0.18188306,N,0.34830067,NS1,Narrow,NCM,-1.019607844,5.384390619
D4_NCM_TRIAL6_A,3,D4,NCM,6,A,D4,3.466666667,1.450980392,2.695675549,1.194539121,-0.692493313,WN,1.7,WN_WN,WN,WN,D,normal,22,2,12.3,12/19/21,15,L,1.52,x,0.2295,-0.0444,0.00108,NA,Good,N,N,,0.337615385,0.885461538,0.506384615,0.137615385,0.685461538,0.306384615,NA,0.041259766,Y,0.193464052,Broad,Broad,NCM,-2.015686275,8.448658209
D4_NCM_TRIAL6_B,3,D4,NCM,6,B,D4,1.066666667,0.901960784,1.334523279,0.582606119,-0.107214946,WN,1.7,WN_WN,WN,WN,D,normal,22,2,12.3,12/19/21,15,L,1.52,x,-0.2366,8.00E-04,0.00138,NA,Duplicate,N,N,,0.159153846,0.696615385,0.515769231,-0.040846154,0.496615385,0.315769231,0.02,0.89984009,N,0.003381234,Broad,Broad,NCM,-0.164705883,2.334579008
D4_NCM_TRIAL7_A,3,D4,NCM,7,A,D4,2,0.274509804,3.585685828,0.3037634,-0.508866086,WN,1.7,WN_WN,WN,WN,D,normal,22,2,12.3,12/19/21,15,L,1.62,ok,0.29099,-0.0352,0.00126,NA,Good,N,N,,0.157857143,0.757642857,0.588714286,-0.042142857,0.557642857,0.388714286,NA,0.04096298,Y,0.120966356,Broad,Broad,NCM,-1.725490196,11.53710112
D4_NCM_TRIAL8_A,3,D4,NCM,8,A,D4,1.933333333,0.745098039,2.463060427,0.874380415,-0.487817455,WN,1.7,WN_WN,WN,WN,D,normal,22,2,12.3,12/19/21,15,L,1.72,x,-0.2728,0,0.00138,NA,Bad,N,N,Inverted and fat,0.161538462,0.761076923,0.426538462,-0.038461538,0.561076923,0.226538462,NA,0.03574847,Y,0,Broad,Broad,NCM,-1.188235294,5.96272203
D4_NCM_TRIAL8_B,3,D4,NCM,8,B,D4,4.2,1.725490196,2.077085871,0.980952221,-0.996322847,WN,1.7,WN_WN,WN,WN,D,normal,22,2,12.3,12/19/21,15,L,1.72,x,0.2441,-0.0301,0.0012,NA,Good,N,N,,0.360769231,0.573153846,0.363692308,0.160769231,0.373153846,0.163692308,NA,0.005826376,Y,0.123310119,Broad,Broad,NCM,-2.474509804,6.08556709
D4_NCM_TRIAL9_A,3,D4,NCM,9,A,D4,3.888888889,1.830065359,7.406828681,1.192698535,-0.32667623,WN,1.7,WN_WN,WN,WN,D,normal,22,2,12.3,12/19/21,15,R,0.92,x,0.2925,-0.0923,0.00054,NA,Bad,Y,N,Lost spot after 513s (10+ presentations/stimulus),0.090571429,0.507142857,0.185428571,-0.109428571,0.307142857,-0.014571429,0.195,0.91015625,N,0.315555556,Broad,Broad,NCM,-2.05882353,40.8650519
D5_FL_TRIAL10_A,4,D5,FL,10,A,D5,1.6,1.607843137,1.298350602,1.247175091,0.005347566,WN,1.7,WN_WN,WN,WN,D,normal,23,3,12,12/21/22,15,R,1.41,ok,-1.397,0.056,0.0009596,NA,Good,N,N,,0.146769231,0.659230769,0.393923077,-0.053230769,0.459230769,0.193923077,NA,0.842209722,N,0.040085898,Field L,Field L,Broad,0.007843137,2.209396386
D5_FL_TRIAL11_A,4,D5,FL,11,A,D5,2.857142857,5.084033613,1.875228924,2.960184216,0.834396196,WN,1.7,WN_WN,WN,WN,D,normal,23,3,12,12/21/22,15,R,1.46,ok,-1.257,0.214,0.00018,NA,Good,N,N,,0.134615385,0.352692308,0.303230769,-0.065384615,0.152692308,0.103230769,0.035,0.010039381,Y,0.170246619,Field L,Field L,Narrow,2.226890756,7.42850081
D5_FL_TRIAL12_A,4,D5,FL,12,A,D5,1.133333333,1.960784314,1.187233679,1.27073347,0.891287659,WN,1.7,WN_WN,WN,WN,D,normal,23,3,12,12/21/22,15,R,1.51,x,-1.548,0.486,0.000239999,NA,Good,N,N,Inverted,0.121153846,0.678,0.329615385,-0.078846154,0.478,0.129615385,0.025,0.009671749,Y,0.313953488,Field L,Field L,Narrow,0.827450981,0.992602845
D5_FL_TRIAL12_B,4,D5,FL,12,B,D5,0.133333333,0.078431373,0.516397779,0.206979868,-0.145075216,WN,1.7,WN_WN,WN,WN,D,normal,23,3,12,12/21/22,15,R,1.51,x,1.367,-0.147,0.001259,NA,Bad,N,N,Might not be auditory,0.183769231,0.488230769,0.546153846,-0.016230769,0.288230769,0.346153846,NA,1,N,0.107534748,Field L,Field L,Broad,-0.05490196,0.152925798
D5_FL_TRIAL13_A,4,D5,FL,13,A,D5,1.533333333,1.843137255,1.187233679,1.961904442,0.211752222,WN,1.7,WN_WN,WN,WN,D,normal,23,3,12,12/21/22,15,R,1.56,x,-1.401,0.113,0.00047999,NA,Bad,Y,N,Drifts slightly out of spot after 200s,0.113083333,0.565333333,0.278333333,-0.086916667,0.365333333,0.078333333,NA,0.550774111,N,0.080656674,Field L,Field L,Broad,0.309803922,2.325013456
D5_FL_TRIAL2_A,4,D5,FL,2,A,D5,5.928571429,10.92436975,2.585887311,2.303950222,1.506563583,WN,1.7,WN_WN,WN,WN,D,normal,23,3,12,12/21/22,15,L,1.09,x,-1.42,0.257,0.0012599,NA,Good,N,N,Inverted,0.275307692,0.129846154,0.243923077,0.075307692,-0.070153846,0.043923077,0.03,0.003871706,Y,0.180985915,Field L,Field L,Broad,4.995798321,11.00616129
D5_FL_TRIAL2_B,4,D5,FL,2,B,D5,2.357142857,2.941176471,1.081817762,1.176470588,0.318264771,WN,1.7,WN_WN,WN,WN,D,normal,23,3,12,12/21/22,15,L,1.09,x,-2.002,0.799,0.000539997,NA,Good,N,N,Inverted,0.152769231,0.333692308,0.201,-0.047230769,0.133692308,0.001,NA,0.257546226,N,0.399100899,Field L,Field L,Broad,0.584033614,3.296324413
D5_FL_TRIAL3_A,4,D5,FL,3,A,D5,1.714285714,1.092436975,1.325987088,0.604179519,-0.469827611,WN,1.7,WN_WN,WN,WN,D,normal,23,3,12,12/21/22,15,L,1.14,ok,1.116,-0.053,0.0012599,NA,Good,N,N,Fat,0.217230769,0.312769231,0.311615385,0.017230769,0.112769231,0.111615385,0.05,0.089844443,N,0.047491039,Field L,Field L,Broad,-0.621848739,1.767530542
D5_FL_TRIAL3_B,4,D5,FL,3,B,D5,1.214285714,1.596638655,0.892582375,0.935178041,0.29718342,WN,1.7,WN_WN,WN,WN,D,normal,23,3,12,12/21/22,15,L,1.14,bad,-1.134,0.186,0.0012,NA,Bad,N,N,Inverted,0.141846154,0.289,0.261538462,-0.058153846,0.089,0.061538462,NA,0.52965067,N,0.164021164,Field L,Field L,Broad,0.382352941,1.647923875
D5_FL_TRIAL4_A,4,D5,FL,4,A,D5,5.846153846,6.877828054,2.672269755,2.071176045,0.285446135,WN,1.7,WN_WN,WN,WN,D,normal,23,3,12,12/21/22,15,L,1.24,x,-1.488,1.066,0.00024,NA,Good,N,N,"Inverted, quite symmetrical",0.241454545,0.371090909,0.277727273,0.041454545,0.171090909,0.077727273,0.085,0.684814453,N,0.716397849,Field L,Field L,Narrow,1.031674208,12.86963822
D5_FL_TRIAL4_B,4,D5,FL,4,B,D5,2.153846154,3.665158371,0.987096234,1.683659272,1.021538892,WN,1.7,WN_WN,WN,WN,D,normal,23,3,12,12/21/22,15,L,1.24,x,1.319,-0.434,0.00024,NA,Good,N,Y,Trough before peak,0.226636364,0.268181818,0.221363636,0.026636364,0.068181818,0.021363636,0.03,0.006103516,Y,0.329037149,Field L,Field L,Narrow,1.511312217,2.290862185
D5_FL_TRIAL4_C,4,D5,FL,4,C,D5,2.461538462,5.203619909,1.71344607,1.903771432,1.48359579,WN,1.7,WN_WN,WN,WN,D,normal,23,3,12,12/21/22,15,L,1.24,x,-1.415,0.168,0.001019,NA,Good,N,N,,0.258454545,0.333090909,0.304636364,0.058454545,0.133090909,0.104636364,0.085,0.005155808,Y,0.118727915,Field L,Field L,Broad,2.742081447,3.619131468
D5_FL_TRIAL5_A,4,D5,FL,5,A,D5,2.333333333,3.529411764,1.5430335,3.144249904,0.381048047,WN,1.7,WN_WN,WN,WN,D,normal,23,3,12,12/21/22,15,L,1.34,x,-1.155,0.419,0.00053987,NA,Good,N,N,Inverted,0.198230769,0.422230769,0.265153846,-0.001769231,0.222230769,0.065153846,0.05,0.55085448,N,0.362770563,Field L,Field L,Broad,1.196078431,9.95924644
D5_FL_TRIAL6_A,4,D5,FL,6,A,D5,2.5,5.980392157,1.224744871,2.017798542,1.374926275,WN,1.7,WN_WN,WN,WN,D,normal,23,3,12,12/21/22,15,L,1.39,x,-1.596,0.532,0.00054,NA,Bad,N,N,"Inverted, Lost spot after 330s",0.06775,0.15475,0.057,-0.13225,-0.04525,-0.143,0.02,0.0625,N,0.333333333,Field L,Field L,Broad,3.480392157,6.113514033
D5_FL_TRIAL7_A,4,D5,FL,7,A,D5,3.307692308,3.800904977,2.015961945,1.869678294,0.183082297,WN,1.7,WN_WN,WN,WN,D,normal,23,3,12,12/21/22,15,R,1.25,x,-0.984,0.337,0.00054,NA,Good,N,N,Inverted,0.236416667,0.426583333,0.308333333,0.036416667,0.226583333,0.108333333,NA,0.483973746,N,0.342479675,Field L,Field L,Broad,0.493212669,7.235846932
D5_FL_TRIAL8_A,4,D5,FL,8,A,D5,1.8,0.862745098,1.264911064,0.732909298,-0.776512119,WN,1.7,WN_WN,WN,WN,D,normal,23,3,12,12/21/22,15,R,1.31,x,-1.196,0.185,0.00125,NA,Good,N,N,Inverted and fat,0.122153846,0.639230769,0.427461538,-0.077846154,0.439230769,0.227461538,NA,0.009874346,Y,0.154682274,Field L,Field L,Broad,-0.937254902,1.492718185
D5_FL_TRIAL8_B,4,D5,FL,8,B,D5,0.666666667,0.352941176,0.975900073,0.43340494,-0.265114192,WN,1.7,WN_WN,WN,WN,D,normal,23,3,12,12/21/22,15,R,1.31,ok,1.063,-0.065,0.00126,NA,Duplicate,N,N,Fat,0.173230769,0.612769231,0.497384615,-0.026769231,0.412769231,0.297384615,NA,0.623631778,N,0.061147695,Field L,Field L,Broad,-0.313725491,1.377931565
D5_FL_TRIAL9_A,4,D5,FL,9,A,D5,3.555555556,4.901960784,2.185812841,1.379534047,0.630096124,WN,1.7,WN_WN,WN,WN,D,normal,23,3,12,12/21/22,15,R,1.36,x,-1.432,0.251,0.00108,NA,Bad,N,N,Lost spot after 520s,0.132375,0.695875,0.179125,-0.067625,0.495875,-0.020875,0.065,0.07421875,N,0.17527933,Field L,Field L,Broad,1.346405228,4.718527062
D5_FL_TRIAL9_B,4,D5,FL,9,B,D5,0.222222222,0.392156863,0.666666667,0.415945165,0.429297821,WN,1.7,WN_WN,WN,WN,D,normal,23,3,12,12/21/22,15,R,1.36,x,1.188,-0.003,0.00138,NA,Bad,N,N,"Fat, Lost spot after 520s",0.141125,0.487,0.572875,-0.058875,0.287,0.372875,0.155,0.571607645,N,0.002525253,Field L,Field L,Broad,0.169934641,0.200264855
D5_NCM_TRIAL10_A,4,D5,NCM,10,A,D5,2.333333333,2.470588235,1.5430335,1.241879207,0.09184892,WN,1.7,WN_WN,WN,WN,D,normal,23,3,12,12/21/22,15,R,1.3,ok,0.675,-0.236,0.00048,NA,Good,N,N,,0.217153846,0.312615385,0.276,0.017153846,0.112615385,0.076,NA,0.887064923,N,0.34962963,Broad,Broad,NCM,0.137254902,2.328335256
D5_NCM_TRIAL10_B,4,D5,NCM,10,B,D5,1.066666667,1.098039215,1.032795559,0.827919471,0.021504666,WN,1.7,WN_WN,WN,WN,D,normal,23,3,12,12/21/22,15,R,1.3,ok,-0.6335,0.0011,0.00132,NA,Good,N,N,Inverted and fat,0.136,0.497615385,0.355769231,-0.064,0.297615385,0.155769231,NA,0.797993853,N,0.001736385,Broad,Broad,NCM,0.031372548,2.095440215
D5_NCM_TRIAL10_C,4,D5,NCM,10,C,D5,4.866666667,5.725490196,3.113717729,2.851287459,0.390664284,WN,1.7,WN_WN,WN,WN,D,normal,23,3,12,12/21/22,15,R,1.3,x,0.636,-0.222,0.00017999,NA,Good,N,N,,0.216923077,0.253384615,0.231615385,0.016923077,0.053384615,0.031615385,0.125,0.207763672,N,0.349056604,NS1,Narrow,NCM,0.858823529,5.619746252
D5_NCM_TRIAL11_A,4,D5,NCM,11,A,D5,2.928571429,2.899159664,2.495050045,1.794088505,-0.014419378,WN,1.7,WN_WN,WN,WN,D,normal,23,3,12,12/21/22,15,R,1.4,ok,0.828,-0.315,0.000179999,NA,Good,N,N,,0.096692308,0.456615385,0.237538462,-0.103307692,0.256615385,0.037538462,0.18,0.489746893,N,0.380434783,NS2,Narrow,NCM,-0.029411765,4.489742956
D5_NCM_TRIAL11_B,4,D5,NCM,11,B,D5,0.857142857,1.428571429,1.027105182,1.147013242,0.44202608,WN,1.7,WN_WN,WN,WN,D,normal,23,3,12,12/21/22,15,R,1.4,x,-0.709,0.107,0.00024,NA,Good,N,Y,Trough before peak,0.094692308,0.847076923,0.436461538,-0.105307692,0.647076923,0.236461538,0.02,0.169317627,N,0.150916784,NS1,Narrow,NCM,0.571428572,1.709060095
D5_NCM_TRIAL12_A,4,D5,NCM,12,A,D5,4.666666667,6.117647059,2.968084199,1.909986244,0.422483847,WN,1.7,WN_WN,WN,WN,D,normal,23,3,12,12/21/22,15,R,1.5,x,0.788,-0.144,0.00017999,NA,Good,N,N,,0.131846154,0.784692308,0.202923077,-0.068153846,0.584692308,0.002923077,0.03,0.132220652,N,0.182741117,NS1,Narrow,NCM,1.450980392,11.78392926
D5_NCM_TRIAL12_B,4,D5,NCM,12,B,D5,0.533333333,0.392156863,0.639940473,0.480292106,-0.178499265,WN,1.7,WN_WN,WN,WN,D,normal,23,3,12,12/21/22,15,R,1.5,x,-0.733,0.001,0.00138,NA,Good,N,N,Inverted,0.145153846,0.832769231,0.690461538,-0.054846154,0.632769231,0.490461538,NA,0.606639168,N,0.001364256,Broad,Broad,NCM,-0.14117647,0.62366782
D5_NCM_TRIAL13_A,4,D5,NCM,13,A,D5,4.6,3.725490196,5.754501344,4.527428719,-0.597996776,WN,1.7,WN_WN,WN,WN,D,normal,23,3,12,12/21/22,15,R,1.6,x,0.747,-0.232,0.000239999,NA,Bad,Y,N,Drifts from beginning to end,0.173583333,0.297333333,0.19775,-0.026416667,0.097333333,-0.00225,NA,0.348104275,N,0.310575636,NS1,Narrow,NCM,-0.874509804,5.331887735
D5_NCM_TRIAL13_B,4,D5,NCM,13,B,D5,0.333333333,0.588235294,0.487950036,0.628849981,0.616160208,WN,1.7,WN_WN,WN,WN,D,normal,23,3,12,12/21/22,15,R,1.6,x,-0.74,0.002,0.00132,NA,Bad,Y,N,"Inverted and fat, Drifts from beginning to end",0.140916667,0.60525,0.59525,-0.059083333,0.40525,0.39525,0.38,0.057162151,N,0.002702703,Broad,Broad,NCM,0.254901961,0.199154171
D5_NCM_TRIAL2_A,4,D5,NCM,2,A,D5,2.857142857,5.084033613,1.65748386,1.625049175,1.398961269,WN,1.7,WN_WN,WN,WN,D,normal,23,3,12,12/21/22,15,L,1.2,x,0.5226,-0.0738,0.00126,NA,Good,N,N,,0.256615385,0.186230769,0.245692308,0.056615385,-0.013769231,0.045692308,0.285,0.000854492,Y,0.141216992,Broad,Broad,NCM,2.226890756,2.710260575
D5_NCM_TRIAL2_B,4,D5,NCM,2,B,D5,1.285714286,0.37815126,0.825420306,0.438203731,-1.605147026,WN,1.7,WN_WN,WN,WN,D,normal,23,3,12,12/21/22,15,L,1.2,x,-0.5429,-1.00E-04,0.00139,NA,Duplicate,N,N,Inverted and fat,0.141769231,0.525153846,0.468461538,-0.058230769,0.325153846,0.268461538,NA,0.00359976,Y,0.000184196,Broad,Broad,NCM,-0.907563026,0.354777205
D5_NCM_TRIAL3_A,4,D5,NCM,3,A,D5,3,2.899159664,2,1.538509068,-0.04466273,WN,1.7,WN_WN,WN,WN,D,normal,23,3,12,12/21/22,15,L,1.3,x,0.759,-0.264,0.000239,NA,Good,N,N,COULD USE THESE TWO UNITS FOR A FIGURE SHOWING A BROAD AND A NARROW,0.224384615,0.508076923,0.279615385,0.024384615,0.308076923,0.079615385,0.05,1,N,0.347826087,NS1,Narrow,NCM,-0.100840336,5.155921192
D5_NCM_TRIAL3_B,4,D5,NCM,3,B,D5,4.928571429,6.596638656,2.615465416,1.498443366,0.578051588,WN,1.7,WN_WN,WN,WN,D,normal,23,3,12,12/21/22,15,L,1.3,x,0.796,-0.244,0.000628,NA,Good,N,N,,0.193461538,0.355153846,0.228,-0.006538462,0.155153846,0.028,0.32,0.140048398,N,0.306532663,Broad,Broad,NCM,1.668067227,8.334951628
D5_NCM_TRIAL3_C,4,D5,NCM,3,C,D5,2.714285714,2.142857143,2.301456777,1.167548587,-0.254370995,WN,1.7,WN_WN,WN,WN,D,normal,23,3,12,12/21/22,15,L,1.3,x,-0.6078,0.005,0.00149,NA,Good,N,N,Inverted and fat,0.162,0.447923077,0.256692308,-0.038,0.247923077,0.056692308,0.075,0.660189169,N,0.00822639,Broad,Broad,NCM,-0.571428571,5.127745216
D5_NCM_TRIAL4_A,4,D5,NCM,4,A,D5,2.333333333,3.176470588,1.175139303,1.273324163,0.496290628,WN,1.7,WN_WN,WN,WN,D,normal,23,3,12,12/21/22,15,L,1.4,ok,0.5738,-0.1171,0.0007786,NA,Good,N,N,,0.108769231,0.285846154,0.149615385,-0.091230769,0.085846154,-0.050384615,0.01,0.201007031,N,0.204078076,Broad,Broad,NCM,0.843137255,2.880584391
D5_NCM_TRIAL4_B,4,D5,NCM,4,B,D5,0.266666667,0.156862745,0.457737708,0.269257475,-0.255433628,WN,1.7,WN_WN,WN,WN,D,normal,23,3,12,12/21/22,15,L,1.4,ok,-0.5647,0.0019,0.0013681,NA,Good,N,N,Inverted and fat,0.174384615,0.519692308,0.399846154,-0.025615385,0.319692308,0.199846154,0.025,0.525937448,N,0.003364618,Broad,Broad,NCM,-0.109803922,0.190019223
D5_NCM_TRIAL5_A,4,D5,NCM,5,A,D5,2.8,2,1.320173149,1.330281563,-0.37974861,WN,1.7,WN_WN,WN,WN,D,normal,23,3,12,12/21/22,15,L,1.5,x,-0.492,-0.00028,0.00132,NA,Good,N,N,Inverted and fat,0.097461538,0.709076923,0.291615385,-0.102538462,0.509076923,0.091615385,0.055,0.05698318,N,0.000569106,Broad,Broad,NCM,-0.8,4.360692042
D5_NCM_TRIAL5_B,4,D5,NCM,5,B,D5,6.733333333,7.176470588,2.987274598,1.991082442,0.149649617,WN,1.7,WN_WN,WN,WN,D,normal,23,3,12,12/21/22,15,L,1.5,x,0.535,-0.26,3.00E-04,NA,Good,N,N,,0.200076923,0.500846154,0.232384615,7.69E-05,0.300846154,0.032384615,0.075,0.232790632,N,0.485981308,NS2,Narrow,NCM,0.443137255,8.985866974
D5_NCM_TRIAL6_A,4,D5,NCM,6,A,D5,2.571428571,2.983193277,2.064881659,0.936193987,0.203337007,WN,1.7,WN_WN,WN,WN,D,normal,23,3,12,12/21/22,15,L,1.6,x,-0.4192,-0.0016,0.00132,NA,Good,N,N,Inverted and fat,0.146916667,0.555166667,0.343833333,-0.053083333,0.355166667,0.143833333,0.13,0.529853804,N,0.003816794,Broad,Broad,NCM,0.411764706,4.148788928
D5_NCM_TRIAL6_B,4,D5,NCM,6,B,D5,4.928571429,5.210084033,4.028060914,3.30232609,0.080384672,WN,1.7,WN_WN,WN,WN,D,normal,23,3,12,12/21/22,15,L,1.6,x,0.4319,-0.1833,0.00024,NA,Good,Y,N,Inverted and fat; drifted out of spot at 363s but still some signal,0.18225,0.29875,0.2005,-0.01775,0.09875,5.00E-04,0.205,0.390991211,N,0.424403797,NS2,Narrow,NCM,0.281512604,13.18792811
D5_NCM_TRIAL7_A,4,D5,NCM,7,A,D5,2.307692308,2.488687783,1.377474463,1.023198227,0.091806004,WN,1.7,WN_WN,WN,WN,D,normal,23,3,12,12/21/22,15,R,1,x,0.727,-0.226,0.00024,NA,Good,N,N,COULD USE THESE TWO UNITS FOR A FIGURE SHOWING A BROAD AND A NARROW,0.136833333,0.505583333,0.327583333,-0.063166667,0.305583333,0.127583333,NA,0.779631744,N,0.310866575,NS1,Narrow,NCM,0.180995475,3.796891956
D5_NCM_TRIAL7_B,4,D5,NCM,7,B,D5,3.307692308,2.171945701,2.529315302,1.185859968,-0.418162812,WN,1.7,WN_WN,WN,WN,D,normal,23,3,12,12/21/22,15,R,1,x,0.606,-0.142,0.00066,NA,Good,N,N,,0.110833333,0.34825,0.340083333,-0.089166667,0.14825,0.140083333,NA,0.327729233,N,0.234323432,Broad,Broad,NCM,-1.135746607,7.363526546
D5_NCM_TRIAL7_C,4,D5,NCM,7,C,D5,0.307692308,0.226244344,0.480384461,0.29786452,-0.163004431,WN,1.7,WN_WN,WN,WN,D,normal,23,3,12,12/21/22,15,R,1,x,-0.05984,-1.00E-04,0.00138,NA,Bad,N,N,"Inverted and fat, might not be auditory",0.1895,0.343416667,0.302583333,-0.0105,0.143416667,0.102583333,NA,0.797713563,N,0.001671123,Broad,Broad,NCM,-0.081447964,0.25314797
D5_NCM_TRIAL8_A,4,D5,NCM,8,A,D5,2.066666667,1.882352941,1.387014608,0.922075074,-0.120135865,WN,1.7,WN_WN,WN,WN,D,normal,23,3,12,12/21/22,15,R,1.1,x,0.5233,-0.1018,0.00066,NA,Good,N,N,,0.140615385,0.563,0.343076923,-0.059384615,0.363,0.143076923,NA,0.754224367,N,0.194534684,Broad,Broad,NCM,-0.184313726,2.369488658
D5_NCM_TRIAL8_B,4,D5,NCM,8,B,D5,3.266666667,4.392156863,2.344192419,2.403518046,0.423461521,WN,1.7,WN_WN,WN,WN,D,normal,23,3,12,12/21/22,15,R,1.1,x,0.4643,-0.0395,0.00018,NA,Good,N,N,,0.141923077,0.521461538,0.219230769,-0.058076923,0.321461538,0.019230769,NA,0.135375977,N,0.085074305,NS1,Narrow,NCM,1.125490196,7.294517493
D5_NCM_TRIAL8_C,4,D5,NCM,8,C,D5,1.466666667,1.215686274,1.35576371,1.053831994,-0.122177267,WN,1.7,WN_WN,WN,WN,D,normal,23,3,12,12/21/22,15,R,1.1,x,-0.4896,7.00E-04,0.00132,NA,Good,N,N,Inverted and fat,0.137846154,0.838230769,0.482230769,-0.062153846,0.638230769,0.282230769,NA,0.629053262,N,0.001429739,Broad,Broad,NCM,-0.250980393,4.12201461
D5_NCM_TRIAL9_A,4,D5,NCM,9,A,D5,1.6,1.529411765,1.594633859,1.061620954,-0.038424414,WN,1.7,WN_WN,WN,WN,D,normal,23,3,12,12/21/22,15,R,1.2,x,-0.5021,1.00E-04,0.0015,NA,Good,N,N,Inverted and fat,0.096384615,0.584230769,0.332769231,-0.103615385,0.384230769,0.132769231,0.04,0.977330935,N,0.000199164,Broad,Broad,NCM,-0.070588235,3.378177624
D5_NCM_TRIAL9_B,4,D5,NCM,9,B,D5,5.866666667,5.68627451,2.875181154,2.021469866,-0.052062445,WN,1.7,WN_WN,WN,WN,D,normal,23,3,12,12/21/22,15,R,1.2,x,0.588,-0.206,0.000545,NA,Bad,N,N,Might not be auditory,0.178230769,0.228461538,0.217769231,-0.021769231,0.028461538,0.017769231,NA,0.798193348,N,0.350340136,Broad,Broad,NCM,-0.180392157,11.97391772
D5_NCM_TRIAL9_C,4,D5,NCM,9,C,D5,4.066666667,4.941176471,1.94446712,2.059423682,0.305517866,WN,1.7,WN_WN,WN,WN,D,normal,23,3,12,12/21/22,15,R,1.2,ok,0.733,-0.455,0.00018,NA,Good,N,N,,0.126153846,0.588384615,0.184615385,-0.073846154,0.388384615,-0.015384615,0.095,0.33026123,N,0.620736698,NS2,Narrow,NCM,0.874509804,8.146189927
F1_FL_TRIAL1_A,2,F1,FL,1,A,F1,8.153846154,9.095022624,4.317525407,4.572972254,0.233773,WN,1.7,WN_WN,WN,WN,F,Isolate,22,3,12.9,5/12/22,15,R,0.94,x,-0.3728,0.1335,0.00024,NA,Bad,N,N,Inverted,0.103333333,0.531,0.177333333,-0.096666667,0.331,-0.022666667,NA,0.587890625,N,0.358100858,Field L,Field L,Narrow,0.94117647,17.77056163
F1_FL_TRIAL1_B,2,F1,FL,1,B,F1,5.230769231,5.20361991,6.247050586,1.873233945,-0.004924535,WN,1.7,WN_WN,WN,WN,F,Isolate,22,3,12.9,5/12/22,15,R,0.94,x,0.3586,-0.0661,0.0002999,NA,Bad,N,Y,Trough before peak,0.16825,0.498416667,0.23,-0.03175,0.298416667,0.03,NA,0.2734375,N,0.184327942,Field L,Field L,Narrow,-0.027149321,31.07618599
F1_FL_TRIAL2_A,2,F1,FL,2,A,F1,2.153846154,3.167420814,1.28102523,1.529005631,0.570180712,WN,1.7,WN_WN,WN,WN,F,Isolate,22,3,12.9,5/12/22,15,R,0.99,ok,0.3921,-0.1178,0.00036,NA,Bad,N,Y,Trough before peak,0.1395,0.414,0.203,-0.0605,0.214,0.003,0.055,0.094238281,N,0.300433563,Field L,Field L,Narrow,1.01357466,3.199443091
F1_FL_TRIAL2_B,2,F1,FL,2,B,F1,3.692307692,5.701357466,2.056883378,2.112529429,0.708209637,WN,1.7,WN_WN,WN,WN,F,Isolate,22,3,12.9,5/12/22,15,R,0.99,x,-0.4242,0.1825,0.00023998,NA,Good,N,N,Inverted,0.224666667,0.36175,0.264333333,0.024666667,0.16175,0.064333333,0.03,0.058939678,N,0.430221594,Field L,Field L,Narrow,2.009049774,8.045699311
F1_FL_TRIAL3_A,2,F1,FL,3,A,F1,1.333333333,2.696078431,1.556997888,2.476162966,0.822571613,WN,1.7,WN_WN,WN,WN,F,Isolate,22,3,12.9,5/12/22,15,R,1.04,x,-0.513,0.368,0.00024,NA,Bad,Y,N,"Unit is lost after 621s, inverted",0.214727273,0.325909091,0.279545455,0.014727273,0.125909091,0.079545455,0.11,0.068080133,N,0.717348928,Field L,Field L,Narrow,1.362745098,3.169454057
F1_FL_TRIAL3_B,2,F1,FL,3,B,F1,3.25,2.5,4.180582821,1.399343755,-0.181685881,WN,1.7,WN_WN,WN,WN,F,Isolate,22,3,12.9,5/12/22,15,R,1.04,x,0.3974,-0.0538,0.0001259,NA,Good,N,N,,0.164090909,0.584454545,0.330454545,-0.035909091,0.384454545,0.130454545,NA,0.783571125,N,0.13537997,Field L,Field L,Narrow,-0.75,17.10503172
F1_NCM_TRIAL4_A,2,F1,NCM,4,A,F1,3.416666667,3.18627451,2.234373344,2.35906067,-0.083273322,WN,1.7,WN_WN,WN,WN,F,Isolate,22,3,12.9,5/12/22,15,R,1.17,x,-0.274,0.03645,0.00084,NA,Good,N,N,Inverted and fat,0.146272727,0.485454545,0.468727273,-0.053727273,0.285454545,0.268727273,NA,0.783571125,N,0.133029197,Broad,Broad,NCM,-0.230392157,7.823217033
F1_NCM_TRIAL4_B,2,F1,NCM,4,B,F1,3.25,3.137254902,2.301185465,1.651128154,-0.04792233,WN,1.7,WN_WN,WN,WN,F,Isolate,22,3,12.9,5/12/22,15,R,1.17,x,0.2844,-0.099,0.00066,NA,Good,N,N,Fat,0.081636364,0.504363636,0.222636364,-0.118363636,0.304363636,0.022636364,NA,0.937424868,N,0.348101266,Broad,Broad,NCM,-0.112745098,5.686538831
F2_FL_TRIAL1_A,3,F2,FL,1,A,F2,1.727272727,2.780748663,1.272077756,1.55834419,0.613204505,WN,1.7,WN_WN,WN,WN,F,Isolate,20,1,12,5/10/22,15,L,0.87,x,0.749,-0.189,0.00096,NA,Good,N,N,,0.1948,0.4994,0.2449,-0.0052,0.2994,0.0449,0.065,0.142170977,N,0.252336449,Field L,Field L,Broad,1.053475936,3.017587006
F2_FL_TRIAL1_B,3,F2,FL,1,B,F2,1.636363636,3.101604278,1.911686547,1.055252445,0.653329784,WN,1.7,WN_WN,WN,WN,F,Isolate,20,1,12,5/10/22,15,L,0.87,x,-0.793,0.581,0.00042,NA,Good,N,N,Inverted,0.1681,0.197,0.1745,-0.0319,-0.003,-0.0255,0.155,0.036578478,Y,0.732660782,Field L,Field L,Broad,1.465240642,4.966627585
F2_FL_TRIAL2_A,3,F2,FL,2,A,F2,5.133333333,6.470588235,1.457329587,2.525206588,0.511262026,WN,1.7,WN_WN,WN,WN,F,Isolate,20,1,12,5/10/22,15,L,0.95,x,-0.752,0.481,0.00047999,NA,Good,N,N,Inverted,0.189428571,0.291428571,0.225571429,-0.010571429,0.091428571,0.025571429,0.125,0.07823218,N,0.63962766,Field L,Field L,Broad,1.337254902,6.914171471
F2_FL_TRIAL2_B,3,F2,FL,2,B,F2,6.866666667,8.274509804,3.502380143,1.714505396,0.336130114,WN,1.7,WN_WN,WN,WN,F,Isolate,20,1,12,5/10/22,15,L,0.95,x,-0.743,0.411,0.00017999,NA,Bad,N,N,"Inverted, may not be auditory",0.261785714,0.227857143,0.261357143,0.061785714,0.027857143,0.061357143,NA,0.201097948,N,0.553162853,Field L,Field L,Narrow,1.407843137,17.31924644
F2_FL_TRIAL2_C,3,F2,FL,2,C,F2,7,9.37254902,3.139608711,2.06740907,0.635327372,WN,1.7,WN_WN,WN,WN,F,Isolate,20,1,12,5/10/22,15,L,0.95,x,-1.248,0.738,0.00018,NA,Good,N,N,Inverted,0.138214286,0.392928571,0.169285714,-0.061785714,0.192928571,-0.030714286,NA,0.057033256,N,0.591346154,Field L,Field L,Narrow,2.37254902,13.89511726
F2_FL_TRIAL3_A,3,F2,FL,3,A,F2,2.181818182,3.20855615,1.778661397,1.425512386,0.668385288,WN,1.7,WN_WN,WN,WN,F,Isolate,20,1,12,5/10/22,15,L,1,x,-0.723,0.443,0.00024,NA,Good,N,N,Inverted,0.2294,0.4432,0.2745,0.0294,0.2432,0.0745,0.05,0.029222538,Y,0.612724758,Field L,Field L,Narrow,1.026737968,2.574623238
F2_FL_TRIAL3_B,3,F2,FL,3,B,F2,3.454545455,5.347593583,1.916436086,2.610261165,0.926517459,WN,1.7,WN_WN,WN,WN,F,Isolate,20,1,12,5/10/22,15,L,1,x,0.677,-0.292,0.00023999,NA,Good,N,Y,Trough before peak,0.2476,0.2857,0.2736,0.0476,0.0857,0.0736,0.095,0.018554688,Y,0.431314623,Field L,Field L,Narrow,1.893048128,4.661728958
F2_FL_TRIAL4_A,3,F2,FL,4,A,F2,4.857142857,5.924369748,3.548719007,2.665489239,0.204490237,WN,1.7,WN_WN,WN,WN,F,Isolate,20,1,12,5/10/22,15,L,1.05,x,-0.757,0.246,0.00024,NA,Good,N,N,Inverted,0.164583333,0.227666667,0.192083333,-0.035416667,0.027666667,-0.007916667,NA,0.426269531,N,0.324966975,Field L,Field L,Narrow,1.067226891,26.5985453
F2_FL_TRIAL4_B,3,F2,FL,4,B,F2,4.642857143,5,2.844891315,1.783459925,0.088939113,WN,1.7,WN_WN,WN,WN,F,Isolate,20,1,12,5/10/22,15,L,1.05,x,0.736,-0.244,0.00024,NA,Duplicate,N,Y,Trough before peak,0.217666667,0.223666667,0.243333333,0.017666667,0.023666667,0.043333333,NA,0.660267661,N,0.331521739,Field L,Field L,Narrow,0.357142857,15.72094132
F2_FL_TRIAL5_A,3,F2,FL,5,A,F2,4.533333333,4.862745098,2.875181154,3.255981732,0.140199648,WN,1.7,WN_WN,WN,WN,F,Isolate,20,1,12,5/10/22,15,R,1.05,x,-0.629,0.387,0.00047999,NA,Good,N,N,Inverted,0.181538462,0.282923077,0.208538462,-0.018461538,0.082923077,0.008538462,0.35,1,N,0.615262321,Field L,Field L,Broad,0.329411765,6.326551328
F2_FL_TRIAL6_B,3,F2,FL,6,B,F2,1.214285714,3.277310924,1.050902281,2.303950222,0.81668444,WN,1.7,WN_WN,WN,WN,F,Isolate,20,1,12,5/10/22,15,R,1.1,ok,-0.802,0.78,3.00E-04,NA,Good,N,N,Inverted,0.202583333,0.350583333,0.251083333,0.002583333,0.150583333,0.051083333,0.12,0.014385408,Y,0.972568579,Field L,Field L,Narrow,2.06302521,6.350699104
F2_FL_TRIAL6_C,3,F2,FL,6,C,F2,3.714285714,3.613445378,1.540657773,1.419607605,-0.062832326,WN,1.7,WN_WN,WN,WN,F,Isolate,20,1,12,5/10/22,15,R,1.1,x,-0.685,0.342,0.00018,NA,Good,N,N,,0.190666667,0.599,0.267333333,-0.009333333,0.399,0.067333333,0.22,0.924922975,N,0.499270073,Field L,Field L,Narrow,-0.100840336,2.68286138
F2_FL_TRIAL6_D,3,F2,FL,6,D,F2,1.642857143,2.43697479,2.239750771,2.944406758,0.285128155,WN,1.7,WN_WN,WN,WN,F,Isolate,20,1,12,5/10/22,15,R,1.1,x,0.717,0.183,0.00096,NA,Good,N,N,Fat,0.20975,0.171083333,0.160833333,0.00975,-0.028916667,-0.039166667,NA,0.362873495,N,0.255230126,Field L,Field L,Broad,0.794117647,8.110603062
F2_NCM_TRIAL1_A,3,F2,NCM,1,A,F2,1.909090909,3.048128342,1.375103302,1.87532109,0.683507295,WN,1.7,WN_WN,WN,WN,F,Isolate,20,1,12,5/10/22,15,L,1.15,ok?,-0.3419,0.1055,0.001076,NA,Bad,N,N,Inverted and fat,0.1622,0.2774,0.391,-0.0378,0.0774,0.191,0.08,0.068216573,N,0.308569757,Broad,Broad,NCM,1.139037433,2.971546227
F2_NCM_TRIAL1_B,3,F2,NCM,1,B,F2,1.636363636,3.048128342,1.566698904,2.534443447,0.507120619,WN,1.7,WN_WN,WN,WN,F,Isolate,20,1,12,5/10/22,15,L,1.15,x,0.3271,-0.2103,0.00048,NA,Good,N,N,,0.2097,0.3583,0.4538,0.0097,0.1583,0.2538,0.07,0.147460938,N,0.642922654,Broad,Broad,NCM,1.411764706,7.779175842
F2_NCM_TRIAL3_A,3,F2,NCM,3,A,F2,1.9,7.882352941,2.685351208,2.633589551,1.542947353,WN,1.7,WN_WN,WN,WN,F,Isolate,20,1,12,5/10/22,15,L,1.25,x,0.3575,-0.1967,0.0005999,NA,Good,N,N,,0.334777778,0.206444444,0.232,0.134777778,0.006444444,0.032,0.12,0.005859375,Y,0.55020979,Broad,Broad,NCM,5.982352941,14.80280277
F2_NCM_TRIAL4_A,3,F2,NCM,4,A,F2,2.461538462,5.022624434,2.633609203,3.109083545,0.52958606,WN,1.7,WN_WN,WN,WN,F,Isolate,20,1,12,5/10/22,15,L,1.3,x,-0.3939,0.0971,0.00108,NA,Good,Y,N,Inverted and fat,0.1485,0.308583333,0.197833333,-0.0515,0.108583333,-0.002166667,NA,0.069128052,N,0.246509266,Broad,Broad,NCM,2.561085972,22.76689666
F2_NCM_TRIAL4_B,3,F2,NCM,4,B,F2,2.384615385,4.479638009,1.502135232,1.805707687,1.263988234,WN,1.7,WN_WN,WN,WN,F,Isolate,20,1,12,5/10/22,15,L,1.3,x,0.3851,-0.1751,0.000539999,NA,Good,Y,N,,0.235333333,0.342833333,0.274666667,0.035333333,0.142833333,0.074666667,0.14,0.00516946,Y,0.454687094,Broad,Broad,NCM,2.095022624,2.927622284
F2_NCM_TRIAL5_A,3,F2,NCM,5,A,F2,2.2,3.058823529,1.424279266,1.902206228,0.350812525,WN,1.7,WN_WN,WN,WN,F,Isolate,20,1,12,5/10/22,15,R,1.1,x,0.3868,-0.2065,0.00048,NA,Good,N,N,,0.134333333,0.327833333,0.30125,-0.065666667,0.127833333,0.10125,0.11,0.201007031,N,0.533867632,Broad,Broad,NCM,0.858823529,5.945005768
F2_NCM_TRIAL5_B,3,F2,NCM,5,B,F2,2.8,2.588235294,3.363671463,1.537149142,-0.067048435,WN,1.7,WN_WN,WN,WN,F,Isolate,20,1,12,5/10/22,15,R,1.1,ok,-0.3812,0.0945,0.0012,NA,Good,N,N,Inverted and fat,0.116416667,0.386583333,0.175083333,-0.083583333,0.186583333,-0.024916667,NA,0.450812553,N,0.247901364,Broad,Broad,NCM,-0.211764706,10.16138408
F2_NCM_TRIAL6_A,3,F2,NCM,6,A,F2,4.142857143,4.453781512,4.054572781,3.753903377,0.137604773,WN,1.7,WN_WN,WN,WN,F,Isolate,20,1,12,5/10/22,15,R,1.15,x,-0.3378,0.0621,0.00084,NA,Good,N,N,Inverted and fat,0.175666667,0.397,0.209666667,-0.024333333,0.197,0.009666667,0.08,1,N,0.18383659,Broad,Broad,NCM,0.310924369,6.765906364
F2_NCM_TRIAL6_B,3,F2,NCM,6,B,F2,2.714285714,2.268907563,2.267786838,1.510448797,-0.183988025,WN,1.7,WN_WN,WN,WN,F,Isolate,20,1,12,5/10/22,15,R,1.15,x,0.3824,-0.3144,0.00048,NA,Good,N,N,,0.126666667,0.315,0.290666667,-0.073333333,0.115,0.090666667,0.04,0.660267661,N,0.822175732,Broad,Broad,NCM,-0.445378151,5.933620508
F3_FL_TRIAL1_A,3,F3,FL,1,A,F3,6.833333333,9.558823529,2.208797836,1.775811756,1.091074295,WN,1.7,WN_WN,WN,WN,F,Isolate,23,3,11.7,5/13/22,15,L,0.76,x,-1.163,0.798,0.00018,NA,Good,N,N,Inverted,0.648818182,0.454090909,0.623909091,0.448818182,0.254090909,0.423909091,0.145,0.008564453,Y,0.686156492,Field L,Field L,Narrow,2.725490196,6.333525568
F3_FL_TRIAL1_B,3,F3,FL,1,B,F3,3.5,6.81372549,1.882937743,1.727929325,1.198496618,WN,1.7,WN_WN,WN,WN,F,Isolate,23,3,11.7,5/13/22,15,L,0.76,x,-1.055,0.517,0.00048,NA,Good,N,N,Inverted,0.201636364,0.365909091,0.228090909,0.001636364,0.165909091,0.028090909,0.095,0.010726858,Y,0.490047393,Field L,Field L,Broad,3.31372549,7.506535948
F3_FL_TRIAL1_C,3,F3,FL,1,C,F3,1.5,5.245098039,2.110579412,3.03547582,0.97253725,WN,1.7,WN_WN,WN,WN,F,Isolate,23,3,11.7,5/13/22,15,L,0.76,ok,0.942,-0.29,0.0009599,NA,Bad,N,N,,0.184727273,0.281727273,0.233272727,-0.015272727,0.081727273,0.033272727,0.02,0.009277344,Y,0.307855626,Field L,Field L,Broad,3.745098039,14.63744714
F3_FL_TRIAL2_A,3,F3,FL,2,A,F3,3.076923077,5.113122172,2.019139192,1.92693252,0.755775407,WN,1.7,WN_WN,WN,WN,F,Isolate,23,3,11.7,5/13/22,15,L,0.84,x,-0.978,0.357,0.00018,NA,Good,N,N,Inverted,0.242727273,0.188272727,0.229545455,0.042727273,-0.011727273,0.029545455,0.035,0.032993412,Y,0.365030675,Field L,Field L,Narrow,2.036199095,7.25341414
F3_FL_TRIAL2_B,3,F3,FL,2,B,F3,2.769230769,3.167420815,1.58922655,1.282893876,0.235656619,WN,1.7,WN_WN,WN,WN,F,Isolate,23,3,11.7,5/13/22,15,L,0.84,x,0.949,-0.357,0.00018,NA,Duplicate,N,Y,"Trough before peak; flipped and inverted version of A, ISIs don't overlap but stim histograms shows they are responding in the same ways",0.356272727,0.292818182,0.363181818,0.156272727,0.092818182,0.163181818,0.06,0.441348417,N,0.376185458,Field L,Field L,Narrow,0.398190046,2.931676256
F3_FL_TRIAL3_A,3,F3,FL,3,A,F3,1.4,2.352941176,1.429840706,1.176470588,0.484407945,WN,1.7,WN_WN,WN,WN,F,Isolate,23,3,11.7,5/13/22,15,R,0.91,x,1.136,-0.23,0.00017999,NA,Duplicate,N,Y,Trough before peak,0.173666667,0.330777778,0.216333333,-0.026333333,0.130777778,0.016333333,0.055,0.184572553,N,0.202464789,Field L,Field L,Narrow,0.952941176,3.791557094
F3_FL_TRIAL3_B,3,F3,FL,3,B,F3,1.8,5.705882353,1.032795559,2.057422493,2.075680293,WN,1.7,WN_WN,WN,WN,F,Isolate,23,3,11.7,5/13/22,15,R,0.91,x,1.196,0.519,0.00018,NA,Good,N,N,Inverted,0.371333333,0.472888889,0.387111111,0.171333333,0.272888889,0.187111111,0.085,0.001953125,Y,0.433946488,Field L,Field L,Narrow,3.905882353,3.663806228
F3_FL_TRIAL4_A,3,F3,FL,4,A,F3,7,5.798319328,2.631174058,1.562420385,-0.322853644,WN,1.7,WN_WN,WN,WN,F,Isolate,23,3,11.7,5/13/22,15,R,0.96,x,-1.284,0.64,0.00042,NA,Good,N,N,Inverted,0.263166667,0.530333333,0.297416667,0.063166667,0.330333333,0.097416667,NA,0.27171136,N,0.498442368,Field L,Field L,Broad,-1.201680672,13.48527646
F3_FL_TRIAL4_B,3,F3,FL,4,B,F3,3.714285714,8.991596639,2.729569462,2.107423429,2.083753172,WN,1.7,WN_WN,WN,WN,F,Isolate,23,3,11.7,5/13/22,15,R,0.96,x,-1.22,0.734,0.00018,NA,Good,N,N,Inverted,0.341916667,0.808916667,0.439833333,0.141916667,0.608916667,0.239833333,0.1,0.00012207,Y,0.601639344,Field L,Field L,Narrow,5.277310925,6.744650803
F3_FL_TRIAL4_C,3,F3,FL,4,C,F3,3,6.092436974,2,3.057493121,0.825787631,WN,1.7,WN_WN,WN,WN,F,Isolate,23,3,11.7,5/13/22,15,R,0.96,x,1.122,-0.381,0.00018,NA,Duplicate,N,Y,Trough before peak; possible duplicate of B?,0.5335,0.798166667,0.642,0.3335,0.598166667,0.442,0.11,0.017028393,Y,0.339572193,Field L,Field L,Narrow,3.092436974,13.90742178
F3_FL_TRIAL5_A,3,F3,FL,5,A,F3,5.714285714,6.428571429,3.473605341,1.622707604,0.216653198,WN,1.7,WN_WN,WN,WN,F,Isolate,23,3,11.7,5/13/22,15,R,1.01,x,-1.287,0.453,0.00036,NA,Good,N,N,Inverted,0.477692308,0.550076923,0.526769231,0.277692308,0.350076923,0.326769231,0.04,0.285762746,N,0.351981352,Field L,Field L,Narrow,0.714285715,11.0681449
F3_FL_TRIAL5_B,3,F3,FL,5,B,F3,1,2.226890756,1.176696811,1.328994678,0.753063853,WN,1.7,WN_WN,WN,WN,F,Isolate,23,3,11.7,5/13/22,15,R,1.01,x,1.207,-0.223,0.00102,NA,Good,N,N,,0.205307692,0.612769231,0.333230769,0.005307692,0.412769231,0.133230769,0.115,0.016892485,Y,0.184755592,Field L,Field L,Broad,1.226890756,2.673681237
F3_FL_TRIAL6_A,3,F3,FL,6,A,F3,5.785714286,12.98319328,1.805060043,1.702747717,2.291996996,WN,1.7,WN_WN,WN,WN,F,Isolate,23,3,11.7,5/13/22,15,R,1.06,x,-0.988,0.593,0.00024,NA,Good,N,N,,0.353153846,0.716461538,0.428461538,0.153153846,0.516461538,0.228461538,0.105,0.00012207,Y,0.600202429,Field L,Field L,Narrow,7.197478994,9.565302597
F3_FL_TRIAL6_B,3,F3,FL,6,B,F3,3.142857143,5.168067227,3.207134903,2.692457069,0.593896427,WN,1.7,WN_WN,WN,WN,F,Isolate,23,3,11.7,5/13/22,15,R,1.06,x,0.929,-0.279,0.000353,NA,Bad,N,N,,0.278923077,0.587461538,0.331538462,0.078923077,0.387461538,0.131538462,0.055,0.057983398,N,0.300322928,Field L,Field L,Narrow,2.025210084,11.96080785
F3_FL_TRIAL7_A,3,F3,FL,7,A,F3,5.692307692,9.366515836,2.868931723,2.346333103,1.141705318,WN,1.7,WN_WN,WN,WN,F,Isolate,23,3,11.7,5/13/22,15,R,1.11,x,-1.112,0.545,0.00023999,NA,Good,N,N,Inverted,0.234916667,0.544416667,0.294416667,0.034916667,0.344416667,0.094416667,0.105,0.007896443,Y,0.490107914,Field L,Field L,Narrow,3.674208144,10.53532892
F3_FL_TRIAL7_B,3,F3,FL,7,B,F3,2,6.470588235,1.870828693,2.851576387,1.311529975,WN,1.7,WN_WN,WN,WN,F,Isolate,23,3,11.7,5/13/22,15,R,1.11,x,1.082,-0.318,0.00036,NA,Good,N,Y,Trough before peak,0.302083333,0.595916667,0.361666667,0.102083333,0.395916667,0.161666667,0.025,0.007896443,Y,0.293900185,Field L,Field L,Narrow,4.470588235,11.55123769
F3_FL_TRIAL8_A,3,F3,FL,8,A,F3,1.8,4.705882353,1.014185106,1.572124952,1.970659057,WN,1.7,WN_WN,WN,WN,F,Isolate,23,3,11.7,5/13/22,15,R,1.16,x,-1.036,0.503,0.00018,NA,Good,N,N,,0.226571429,0.469928571,0.287857143,0.026571429,0.269928571,0.087857143,0.11,0.000717549,Y,0.485521236,Field L,Field L,Narrow,2.905882353,2.247197231
F3_FL_TRIAL9_A,3,F3,FL,9,A,F3,3.5,6.680672269,1.870828693,1.751187177,1.09123124,WN,1.7,WN_WN,WN,WN,F,Isolate,23,3,11.7,5/13/22,15,R,1.26,x,-1.218,0.615,0.000362,NA,Good,N,N,inverted,0.340666667,0.346333333,0.368083333,0.140666667,0.146333333,0.168083333,0.1,0.004718659,Y,0.504926108,Field L,Field L,Narrow,3.180672269,8.32450039
F3_FL_TRIAL9_B,3,F3,FL,9,B,F3,1.357142857,2.773109244,2.205138853,1.392564984,0.827382259,WN,1.7,WN_WN,WN,WN,F,Isolate,23,3,11.7,5/13/22,15,R,1.26,x,1.16,-0.433,0.00042,NA,Good,N,Y,Trough before peak,0.171333333,0.375833333,0.216666667,-0.028666667,0.175833333,0.016666667,0.135,0.016973976,Y,0.373275862,Field L,Field L,Broad,1.415966387,3.170768307
F3_NCM_TRIAL3_A,3,F3,NCM,3,A,F3,3.7,5.705882353,1.636391694,1.961764461,1.352222645,WN,1.7,WN_WN,WN,WN,F,Isolate,23,3,11.7,5/13/22,15,R,0.95,x,0.668,-0.284,0.00054,NA,Good,N,N,,0.314444444,0.314555556,0.334333333,0.114444444,0.114555556,0.134333333,0.035,0.016464233,Y,0.425149701,Broad,Broad,NCM,2.005882353,2.567785467
F3_NCM_TRIAL4_A,3,F3,NCM,4,A,F3,3.090909091,5.294117647,1.921173884,2.590907711,0.776714491,WN,1.7,WN_WN,WN,WN,F,Isolate,23,3,11.7,5/13/22,15,R,1.02,x,0.5165,-0.1987,0.00024,NA,Good,N,N,,0.226555556,0.438888889,0.278333333,0.026555556,0.238888889,0.078333333,0.07,0.04534035,Y,0.384704743,NS2,Narrow,NCM,2.203208556,8.174497412
F3_NCM_TRIAL5_A,3,F3,NCM,5,A,F3,2,2.352941176,1.477097892,1.202911431,0.179615057,WN,1.7,WN_WN,WN,WN,F,Isolate,23,3,11.7,5/13/22,15,R,1.07,ok,0.712,-0.35,0.00047999,NA,Good,N,N,,0.219545455,0.252,0.250818182,0.019545455,0.052,0.050818182,0.025,0.45525758,N,0.491573034,Broad,Broad,NCM,0.352941176,3.816608997
F3_NCM_TRIAL6_A,3,F3,NCM,6,A,F3,6.333333333,6.37254902,3.256694736,2.227022881,0.011446552,WN,1.7,WN_WN,WN,WN,F,Isolate,23,3,11.7,5/13/22,15,R,1.12,x,0.524,-0.35,0.00036,NA,Good,N,N,,0.188363636,0.255727273,0.193727273,-0.011636364,0.055727273,-0.006272727,NA,0.909667969,N,0.667938931,NS2,Narrow,NCM,0.039215687,11.94828912
F3_NCM_TRIAL6_B,3,F3,NCM,6,B,F3,3.833333333,5.931372549,2.081665999,2.318712712,0.750580287,WN,1.7,WN_WN,WN,WN,F,Isolate,23,3,11.7,5/13/22,15,R,1.12,ok,-0.4996,0.1238,0.00125,NA,Bad,N,N,"Inverted, fat",0.156181818,0.181,0.186727273,-0.043818182,-0.019,-0.013272727,0.055,0.037485928,Y,0.247798239,Broad,Broad,NCM,2.098039216,7.903883118
F3_NCM_TRIAL7_A,3,F3,NCM,7,A,F3,4.833333333,6.764705882,3.92737093,2.919707742,1.2807559,WN,1.7,WN_WN,WN,WN,F,Isolate,23,3,11.7,5/13/22,15,R,1.17,x,-0.5024,0.0955,0.001022,NA,Bad,Y,N,"Inverted, fat; might be noisy and not super auditory",0.173333333,0.180555556,0.162333333,-0.026666667,-0.019444444,-0.037666667,0.075,0.009277344,Y,0.19008758,Broad,Broad,NCM,1.931372549,3.913975397
F3_NCM_TRIAL7_B,3,F3,NCM,7,B,F3,7.5,9.901960785,3.705033431,3.325985401,0.542242578,WN,1.7,WN_WN,WN,WN,F,Isolate,23,3,11.7,5/13/22,15,R,1.17,x,0.5324,-0.1241,0.00042,NA,Good,Y,N,,0.346111111,0.209,0.342888889,0.146111111,0.009,0.142888889,0.045,0.203613281,N,0.233095417,Broad,Broad,NCM,2.401960785,19.88052673
F3_NCM_TRIAL8_A,3,F3,NCM,8,A,F3,2.916666667,4.117647059,2.353269808,3.279954274,0.338538938,WN,1.7,WN_WN,WN,WN,F,Isolate,23,3,11.7,5/13/22,15,R,1.22,x,0.607,-0.336,0.00048,NA,Good,N,N,Maybe not auditory?,0.250727273,0.203181818,0.263545455,0.050727273,0.003181818,0.063545455,0.16,0.346150451,N,0.55354201,Broad,Broad,NCM,1.200980392,12.78111784
F3_NCM_TRIAL8_B,3,F3,NCM,8,B,F3,2.75,4.068627451,2.050498831,1.134500937,0.660038466,WN,1.7,WN_WN,WN,WN,F,Isolate,23,3,11.7,5/13/22,15,R,1.22,x,-0.524,0.275,0.00018,NA,Good,N,Y,"Inverted, trough before peak; not auditory?",0.252545455,0.242727273,0.242454545,0.052545455,0.042727273,0.042454545,0.21,0.065153836,N,0.52480916,NS2,Narrow,NCM,1.318627451,4.078118992
F3_NCM_TRIAL9_A,3,F3,NCM,9,A,F3,15.92857143,17.5210084,5.928604528,6.057037787,0.265238339,WN,1.7,WN_WN,WN,WN,F,Isolate,23,3,11.7,5/13/22,15,R,1.37,x,0.902,-0.534,0.00024,NA,Good,N,N,Only likes stims 4 and 5,0.370083333,0.338083333,0.400833333,0.170083333,0.138083333,0.200833333,0.13,0.463134766,N,0.592017738,NS2,Narrow,NCM,1.59243697,38.23552362
F3_NCM_TRIAL9_B,3,F3,NCM,9,B,F3,4.285714286,10.58823529,3.074174597,4.042626216,1.554417306,WN,1.7,WN_WN,WN,WN,F,Isolate,23,3,11.7,5/13/22,15,R,1.37,x,0.559,-0.279,0.00048,NA,Good,N,N,,0.443333333,0.202,0.407916667,0.243333333,0.002,0.207916667,0.055,0.00012207,Y,0.499105546,Broad,Broad,NCM,6.302521004,16.97620225
G1_NCM_TRIAL1_A,5,G1,NCM,1,A,G1,1.466666667,1.607843137,1.125462868,1.121987738,0.091735729,WN,1.7,WN_WN,WN,WN,G,xfostered,22,2,12,3/19/22,15,L,1.41,x,0.2235,-0.146,0.00048,NA,Bad,N,N,Low S:N,0.133071429,0.150928571,0.161,-0.066928571,-0.049071429,-0.039,NA,0.669878098,N,0.653243848,Broad,Broad,NCM,0.14117647,2.367612457
G1_NCM_TRIAL2_A,5,G1,NCM,2,A,G1,1.333333333,1.215686274,1.447493729,0.902204327,-0.073311984,WN,1.7,WN_WN,WN,WN,G,xfostered,22,2,12,3/19/22,15,L,1.59,x,0.21355,-0.0844,6.00E-04,NA,Bad,N,N,Might not be auditory,0.1715,0.338928571,0.279285714,-0.0285,0.138928571,0.079285714,0.14,0.711719371,N,0.395223601,Broad,Broad,NCM,-0.117647059,2.584544406
G1_NCM_TRIAL6_B,5,G1,NCM,6,B,G1,0.733333333,1.254901961,1.099783528,1.790658832,0.387908451,WN,1.7,WN_WN,WN,WN,G,xfostered,22,2,12,3/19/22,15,L,1.39,x,-0.3358,0.0755,3.00E-04,NA,Bad,N,N,"Inverted, Might not be auditory",0.162857143,0.451142857,0.3985,-0.037142857,0.251142857,0.1985,0.01,0.228176676,N,0.224836212,NS1,Narrow,NCM,0.521568628,1.962106882
G1_NCM_TRIAL6_C,5,G1,NCM,6,C,G1,1.733333333,2.078431372,1.334523279,1.086170348,0.249586823,WN,1.7,WN_WN,WN,WN,G,xfostered,22,2,12,3/19/22,15,L,1.39,ok?,0.3457,-0.1437,6.00E-04,NA,Bad,N,N,Might not be auditory,0.231,0.244928571,0.260785714,0.031,0.044928571,0.060785714,NA,0.477378306,N,0.415678334,Broad,Broad,NCM,0.345098039,1.968565936
G1_NCM_TRIAL7_A,5,G1,NCM,7,A,G1,1.266666667,1.803921568,1.579632266,1.324073962,0.302840803,WN,1.7,WN_WN,WN,WN,G,xfostered,22,2,12,3/19/22,15,R,1.09,ok?,0.3267,-0.2029,0.00024,NA,Good,N,N,,0.128769231,0.282230769,0.178461538,-0.071230769,0.082230769,-0.021538462,0.01,0.20118884,N,0.621059076,NS2,Narrow,NCM,0.537254901,3.20178393
G1_NCM_TRIAL8_A,5,G1,NCM,8,A,G1,4.533333333,3.254901961,3.090692633,1.438587396,-0.587508243,WN,1.7,WN_WN,WN,WN,G,xfostered,22,2,12,3/19/22,15,R,1.29,x,0.572,-0.272,0.00018,NA,Good,N,N,,0.1245,0.25625,0.16125,-0.0755,0.05625,-0.03875,NA,0.078172067,N,0.475524476,NS2,Narrow,NCM,-1.278431372,5.142545175
G1_NCM_TRIAL8_B,5,G1,NCM,8,B,G1,1.666666667,2,1.496026483,1.471428332,0.162772452,WN,1.7,WN_WN,WN,WN,G,xfostered,22,2,12,3/19/22,15,R,1.29,x,0.4987,-0.2198,0.00048,NA,Good,N,N,,0.124833333,0.288916667,0.218166667,-0.075166667,0.088916667,0.018166667,NA,0.798033799,N,0.440745939,Broad,Broad,NCM,0.333333333,4.188081508
G2_FL_TRIAL10_A,3,G2,FL,10,A,G2,7.4,5.921568628,2.261478657,2.239565432,-1.001941001,WN,1.7,WN_WN,WN,WN,G,xfostered,23,3,13.3,3/20/22,15,R,1.42,x,-0.78,0.479,0.000419,NA,Good,N,N,Inverted,0.193153846,0.376076923,0.226461538,-0.006846154,0.176076923,0.026461538,NA,0.00757389,Y,0.614102564,Field L,Field L,Broad,-1.478431372,2.662452904
G2_FL_TRIAL10_B,3,G2,FL,10,B,G2,13.73333333,11.72549019,4.817626367,3.703458368,-0.403005924,WN,1.7,WN_WN,WN,WN,G,xfostered,23,3,13.3,3/20/22,15,R,1.42,x,-0.763,0.539,0.0001799,NA,Duplicate,N,N,Inverted,0.17,0.364769231,0.198,-0.03,0.164769231,-0.002,NA,0.207763672,N,0.706422018,Field L,Field L,Narrow,-2.00784314,25.46475971
G2_FL_TRIAL10_C,3,G2,FL,10,C,G2,3.933333333,4.588235294,1.579632266,2.247643903,0.250982854,WN,1.7,WN_WN,WN,WN,G,xfostered,23,3,13.3,3/20/22,15,R,1.42,x,0.717,-0.277,0.00018,NA,Good,N,Y,Trough before peak,0.143846154,0.253384615,0.163692308,-0.056153846,0.053384615,-0.036307692,NA,0.488708496,N,0.386331939,Field L,Field L,Narrow,0.654901961,6.824390619
G2_FL_TRIAL2_A,3,G2,FL,2,A,G2,3,5.098039215,2.104417123,1.882177863,0.773572455,WN,1.7,WN_WN,WN,WN,G,xfostered,23,3,13.3,3/20/22,15,L,1.47,x,-0.71,0.33,0.00018,NA,Good,N,N,Inverted; Only likes stim 5?,0.187076923,0.197538462,0.205,-0.012923077,-0.002461538,0.005,0.255,0.021381826,Y,0.464788732,Field L,Field L,Narrow,2.098039215,7.361322568
G2_FL_TRIAL3_A,3,G2,FL,3,A,G2,6.333333333,7.019607843,2.992052966,2.25057434,0.262471364,WN,1.7,WN_WN,WN,WN,G,xfostered,23,3,13.3,3/20/22,15,R,1.07,x,-0.68,0.32,0.00018,NA,Good,N,N,Inverted,0.188357143,0.328357143,0.216857143,-0.011642857,0.128357143,0.016857143,NA,0.454284668,N,0.470588235,Field L,Field L,Narrow,0.68627451,7.252902731
G2_FL_TRIAL4_A,3,G2,FL,4,A,G2,7.066666667,6.94117647,3.305118685,2.527163354,-0.028116013,WN,1.7,WN_WN,WN,WN,G,xfostered,23,3,13.3,3/23/22,15,R,1.12,ok?,-0.669,0.434,0.00048,NA,Bad,N,N,"Inverted, nice shape",0.137,0.201,0.158142857,-0.063,0.001,-0.041857143,NA,0.803955078,N,0.648729447,Field L,Field L,Broad,-0.125490197,19.67006535
G2_FL_TRIAL4_B,3,G2,FL,4,B,G2,3.4,3.960784314,2.472708174,1.78512925,0.208964176,WN,1.7,WN_WN,WN,WN,G,xfostered,23,3,13.3,3/23/22,15,R,1.12,x,-0.596,0.25,0.00018,NA,Good,N,N,"Inverted, nice shape",0.209285714,0.4825,0.262428571,0.009285714,0.2825,0.062428571,0.01,0.670066106,N,0.419463087,Field L,Field L,Narrow,0.560784314,7.300515186
G2_FL_TRIAL4_C,3,G2,FL,4,C,G2,1.066666667,2.078431372,1.279880947,1.015613811,0.682088374,WN,1.7,WN_WN,WN,WN,G,xfostered,23,3,13.3,3/23/22,15,R,1.12,x,0.566,-0.201,0.00018,NA,Duplicate,N,Y,Trough before peak,0.122214286,0.323428571,0.204142857,-0.077785714,0.123428571,0.004142857,NA,0.02867129,Y,0.355123675,Field L,Field L,Narrow,1.011764705,2.219700116
G2_FL_TRIAL5_A,3,G2,FL,5,A,G2,2.071428571,2.058823529,1.979288361,1.32038339,-0.006074164,WN,1.7,WN_WN,WN,WN,G,xfostered,23,3,13.3,3/23/22,15,R,1.17,x,-0.81,0.485,0.00036,NA,Bad,N,N,"Nice shape, inverted",0.135230769,0.242076923,0.169846154,-0.064769231,0.042076923,-0.030153846,NA,0.949932176,N,0.598765432,Field L,Field L,Narrow,-0.012605042,4.374285008
G2_FL_TRIAL5_B,3,G2,FL,5,B,G2,0.785714286,0.966386555,0.801783726,0.751438789,0.236270046,WN,1.7,WN_WN,WN,WN,G,xfostered,23,3,13.3,3/23/22,15,R,1.17,ok?,0.645,-0.056,0.001139781,NA,Bad,N,Y,"No idea what is the trough in this one (trough before peak?), actually has strong auditory response though…",0.183230769,0.562692308,0.443461538,-0.016769231,0.362692308,0.243461538,0.015,0.44120852,N,NA,Field L,Field L,Broad,0.180672269,0.623066874
G2_FL_TRIAL6_A,3,G2,FL,6,A,G2,8.733333333,8.901960784,3.081434422,2.863397339,0.048646002,WN,1.7,WN_WN,WN,WN,G,xfostered,23,3,13.3,3/23/22,15,R,1.22,x,-0.654,0.408,0.00024,NA,Good,N,N,"Nice shape, inverted",0.1415,0.4805,0.194071429,-0.0585,0.2805,-0.005928571,NA,0.887064923,N,0.623853211,Field L,Field L,Narrow,0.168627451,12.31597078
G2_FL_TRIAL6_B,3,G2,FL,6,B,G2,6.8,6.862745098,1.897366596,2.105317358,0.026017179,WN,1.7,WN_WN,WN,WN,G,xfostered,23,3,13.3,3/23/22,15,R,1.22,ok?,-0.641,0.435,0.0004799,NA,Bad,N,N,"Nice shape, inverted",0.1965,0.266928571,0.1995,-0.0035,0.066928571,-5.00E-04,NA,0.949932176,N,0.678627145,Field L,Field L,Broad,0.062745098,5.928242983
G2_FL_TRIAL6_C,3,G2,FL,6,C,G2,2.333333333,2.156862745,1.759328876,1.169446821,-0.130082021,WN,1.7,WN_WN,WN,WN,G,xfostered,23,3,13.3,3/23/22,15,R,1.22,x,0.614,-0.232,0.00041999,NA,Good,N,Y,Trough before peak,0.109071429,0.359142857,0.140214286,-0.090928571,0.159142857,-0.059785714,NA,0.711941655,N,0.377850163,Field L,Field L,Broad,-0.176470588,1.99538639
G2_FL_TRIAL7_A,3,G2,FL,7,A,G2,6.066666667,6.31372549,2.250925735,1.798921336,0.108281588,WN,1.7,WN_WN,WN,WN,G,xfostered,23,3,13.3,3/20/22,15,R,1.27,x,0.561,-0.269,0.00018,NA,Duplicate,N,Y,Trough before peak,0.144142857,0.354714286,0.172071429,-0.055857143,0.154714286,-0.027928571,NA,0.733219649,N,0.479500891,Field L,Field L,Narrow,0.247058823,5.375409456
G2_FL_TRIAL7_C,3,G2,FL,7,C,G2,4.066666667,6.274509804,2.685055644,2.081705576,0.794606452,WN,1.7,WN_WN,WN,WN,G,xfostered,23,3,13.3,3/20/22,15,R,1.27,x,-0.61,0.343,0.00054,NA,Good,N,N,Inverted,0.152571429,0.247642857,0.205142857,-0.047428571,0.047642857,0.005142857,0.17,0.024838727,Y,0.562295082,Field L,Field L,Broad,2.207843137,7.923813918
G2_FL_TRIAL8_A,3,G2,FL,8,A,G2,4.8,3.529411765,3.121355017,1.912572551,-0.510079656,WN,1.7,WN_WN,WN,WN,G,xfostered,23,3,13.3,3/20/22,15,R,1.32,x,-0.677,0.344,0.00047999,NA,Good,N,N,Inverted,0.192285714,0.355785714,0.224714286,-0.007714286,0.155785714,0.024714286,NA,0.120544434,N,0.508124077,Field L,Field L,Broad,-1.270588235,6.625051904
G2_FL_TRIAL8_B,3,G2,FL,8,B,G2,10.06666667,10.03921569,2.685055644,2.091182282,-0.008040385,WN,1.7,WN_WN,WN,WN,G,xfostered,23,3,13.3,3/20/22,15,R,1.32,x,-0.627,0.356,0.00017999,NA,Good,N,N,Inverted,0.222642857,0.409642857,0.239928571,0.022642857,0.209642857,0.039928571,0.355,0.801732213,N,0.567783094,Field L,Field L,Narrow,-0.02745098,11.59993849
G2_FL_TRIAL8_C,3,G2,FL,8,C,G2,3.133333333,3.647058824,1.922300209,1.478131912,0.380355976,WN,1.7,WN_WN,WN,WN,G,xfostered,23,3,13.3,3/20/22,15,R,1.32,x,0.599,-0.282,0.00017999,NA,Duplicate,N,Y,Trough before peak,0.164642857,0.288714286,0.182571429,-0.035357143,0.088714286,-0.017428571,NA,0.280239814,N,0.470784641,Field L,Field L,Narrow,0.513725491,2.068496733
G2_FL_TRIAL9_A,3,G2,FL,9,A,G2,4.466666667,5.137254902,1.552264091,1.342610664,0.321054447,WN,1.7,WN_WN,WN,WN,G,xfostered,23,3,13.3,3/20/22,15,R,1.37,x,-0.651,0.406,0.00042,NA,Good,N,N,,0.154071429,0.378,0.153285714,-0.045928571,0.178,-0.046714286,NA,0.221575006,N,0.623655914,Field L,Field L,Broad,0.670588235,4.333933102
G2_FL_TRIAL9_B,3,G2,FL,9,B,G2,8.6,11.25490196,3.680062111,2.523901235,0.546964378,WN,1.7,WN_WN,WN,WN,G,xfostered,23,3,13.3,3/20/22,15,R,1.37,x,-0.625,0.371,0.00018,NA,Good,N,N,Inverted,0.173714286,0.230785714,0.195357143,-0.026285714,0.030785714,-0.004642857,NA,0.094604492,N,0.5936,Field L,Field L,Narrow,2.65490196,23.22854286
G2_FL_TRIAL9_C,3,G2,FL,9,C,G2,2.066666667,2.196078431,1.667618776,1.266837498,0.080907214,WN,1.7,WN_WN,WN,WN,G,xfostered,23,3,13.3,3/20/22,15,R,1.37,ok?,0.59,-0.076,0.000899,NA,Bad,N,Y,Not sure where trough is ,0.204071429,0.377285714,0.304785714,0.004071429,0.177285714,0.104785714,NA,0.409725889,N,0.128813559,Field L,Field L,Broad,0.129411764,2.660761246
G2_NCM_TRIAL1_B,3,G2,NCM,1,B,G2,2.466666667,4.431372549,2.416215065,3.665895153,0.527893107,WN,1.7,WN_WN,WN,WN,G,xfostered,23,3,13.3,3/20/22,15,L,1.26,x,-0.246,0.056,0.001,NA,Bad,N,N,"Inverted and fat, Only likes stim 2?",0.1525,0.390333333,0.1925,-0.0475,0.190333333,-0.0075,NA,0.047912598,Y,0.227642276,Broad,Broad,NCM,1.964705882,14.12770473
G2_NCM_TRIAL10_A,3,G2,NCM,10,A,G2,2.866666667,3.333333333,1.641718032,1.895263846,0.182867804,WN,1.7,WN_WN,WN,WN,G,xfostered,23,3,13.3,3/20/22,15,R,1.63,x,0.3909,-0.236,0.00053999,NA,Good,N,N,,0.219769231,0.290076923,0.288923077,0.019769231,0.090076923,0.088923077,0.12,0.55085448,N,0.603734971,Broad,Broad,NCM,0.466666666,6.469419455
G2_NCM_TRIAL10_C,3,G2,NCM,10,C,G2,3.8,3.294117647,3.529467787,1.504647603,-0.160174436,WN,1.7,WN_WN,WN,WN,G,xfostered,23,3,13.3,3/20/22,15,R,1.63,x,0.3124,-0.2422,0.00024,NA,Good,N,N,,0.129384615,0.218461538,0.146769231,-0.070615385,0.018461538,-0.053230769,NA,0.820208826,N,0.775288092,NS2,Narrow,NCM,-0.505882353,10.22597463
G2_NCM_TRIAL3_A,3,G2,NCM,3,A,G2,3.2,3.019607843,2.704493615,1.489237492,-0.061235605,WN,1.7,WN_WN,WN,WN,G,xfostered,23,3,13.3,3/20/22,15,R,1.23,ok?,0.278,-0.1468,0.00048,NA,Bad,N,N,Might not be auditory,0.184714286,0.263142857,0.235642857,-0.015285714,0.063142857,0.035642857,NA,0.846923828,N,0.528057554,Broad,Broad,NCM,-0.180392157,8.692718185
G2_NCM_TRIAL4_A,3,G2,NCM,4,A,G2,2.066666667,2.666666667,2.016597795,1.81805449,0.223957915,WN,1.7,WN_WN,WN,WN,G,xfostered,23,3,13.3,3/23/22,15,R,1.33,x,0.23896,-0.0558,0.00078,NA,Good,N,N,,0.135857143,0.317642857,0.206071429,-0.064142857,0.117642857,0.006071429,NA,0.513570734,N,0.233511885,Broad,Broad,NCM,0.6,7.157647059
G2_NCM_TRIAL4_B,3,G2,NCM,4,B,G2,1.6,2.078431372,0.91025899,1.81805449,0.26189218,WN,1.7,WN_WN,WN,WN,G,xfostered,23,3,13.3,3/23/22,15,R,1.33,ok?,-0.23599,0.05958,0.00126,NA,Bad,N,N,"Inverted and fat, Only likes 2 and 4",0.168785714,0.275142857,0.195857143,-0.031214286,0.075142857,-0.004142857,NA,0.529853804,N,0.252468325,Broad,Broad,NCM,0.478431372,3.372026145
G2_NCM_TRIAL5_A,3,G2,NCM,5,A,G2,3.857142857,3.949579832,1.167320591,1.622121683,0.040860475,WN,1.7,WN_WN,WN,WN,G,xfostered,23,3,13.3,3/23/22,15,R,1.38,ok?,-0.281,0.1449,0.00042,NA,Bad,N,Y,"Inverted, trough before peak, Might not be auditory",0.158,0.172538462,0.178076923,-0.042,-0.027461538,-0.021923077,NA,0.615431472,N,0.515658363,Broad,Broad,NCM,0.092436975,5.017159805
G2_NCM_TRIAL5_B,3,G2,NCM,5,B,G2,2.571428571,3.277310924,2.277457615,1.722176599,0.244338253,WN,1.7,WN_WN,WN,WN,G,xfostered,23,3,13.3,3/23/22,15,R,1.38,ok?,0.2805,-0.1531,0.000539,NA,Bad,N,N,,0.197615385,0.258,0.213538462,-0.002384615,0.058,0.013538462,0.275,0.258251395,N,0.545811052,Broad,Broad,NCM,0.705882353,8.29065744
G2_NCM_TRIAL6_A,3,G2,NCM,6,A,G2,6.066666667,5.843137254,3.555009879,2.62565263,-0.082259659,WN,1.7,WN_WN,WN,WN,G,xfostered,23,3,13.3,3/23/22,15,R,1.43,x,-0.24162,0.04681,0.00108,NA,Good,N,N,Inverted and fat,0.157,0.276285714,0.183857143,-0.043,0.076285714,-0.016142857,0.16,0.75470463,N,0.193733962,Broad,Broad,NCM,-0.223529413,8.107128027
G2_NCM_TRIAL6_B,3,G2,NCM,6,B,G2,3.6,3.647058824,1.764733893,2.247643903,0.020371858,WN,1.7,WN_WN,WN,WN,G,xfostered,23,3,13.3,3/23/22,15,R,1.43,x,0.2672,-0.1142,3.00E-04,NA,Good,N,N,,0.143428571,0.239857143,0.150928571,-0.056571429,0.039857143,-0.049071429,NA,0.977340078,N,0.42739521,NS2,Narrow,NCM,0.047058824,5.488442907
G2_NCM_TRIAL7_A,3,G2,NCM,7,A,G2,3.933333333,4.31372549,2.218965868,2.452380553,0.096961694,WN,1.7,WN_WN,WN,WN,G,xfostered,23,3,13.3,3/20/22,15,R,1.48,x,0.3478,-0.196,0.00017999,NA,Good,N,N,,0.160785714,0.2875,0.185285714,-0.039214286,0.0875,-0.014714286,0.345,0.932093283,N,0.563542266,NS2,Narrow,NCM,0.380392157,15.04538255
G2_NCM_TRIAL7_B,3,G2,NCM,7,B,G2,1.466666667,1.372549019,1.245945806,0.907666765,-0.071316937,WN,1.7,WN_WN,WN,WN,G,xfostered,23,3,13.3,3/20/22,15,R,1.48,x,0.345,-0.1327,0.0005999,NA,Good,N,N,,0.135857143,0.214071429,0.186714286,-0.064142857,0.014071429,-0.013285714,NA,0.932024863,N,0.384637681,Broad,Broad,NCM,-0.094117648,1.77337947
G2_NCM_TRIAL8_A,3,G2,NCM,8,A,G2,7.666666667,5.56862745,2.870208222,2.712693898,-0.443013265,WN,1.7,WN_WN,WN,WN,G,xfostered,23,3,13.3,3/20/22,15,R,1.53,x,0.2447,-0.1253,0.00054,NA,Good,N,N,,0.155714286,0.279285714,0.171357143,-0.044285714,0.079285714,-0.028642857,NA,0.120544434,N,0.512055578,Broad,Broad,NCM,-2.098039217,21.90342175
G2_NCM_TRIAL8_B,3,G2,NCM,8,B,G2,7,8.392156862,2.725540575,2.789949714,0.473292467,WN,1.7,WN_WN,WN,WN,G,xfostered,23,3,13.3,3/20/22,15,R,1.53,x,0.2544,-0.1399,0.00017999,NA,Good,N,N,,0.135571429,0.401785714,0.168857143,-0.064428571,0.201785714,-0.031142857,NA,0.168823242,N,0.549921384,NS2,Narrow,NCM,1.392156862,9.021760861
G2_NCM_TRIAL8_C,3,G2,NCM,8,C,G2,5.933333333,7.37254902,1.751190072,3.228538911,0.57215065,WN,1.7,WN_WN,WN,WN,G,xfostered,23,3,13.3,3/20/22,15,R,1.53,x,-0.2468,0.1282,0.0001799,NA,Duplicate,N,Y,"Inverted, trough before peak",0.166,0.219714286,0.156214286,-0.034,0.019714286,-0.043785714,NA,0.05698318,N,0.519448947,NS2,Narrow,NCM,1.439215687,6.745036524
G2_NCM_TRIAL9_A,3,G2,NCM,9,A,G2,1.866666667,3.058823529,1.302013093,2.015756029,0.62312279,WN,1.7,WN_WN,WN,WN,G,xfostered,23,3,13.3,3/20/22,15,R,1.58,x,0.3013,-0.1474,0.000539,NA,Good,N,N,,0.217714286,0.24,0.247857143,0.017714286,0.04,0.047857143,0.215,0.016946794,Y,0.489213409,Broad,Broad,NCM,1.192156862,3.774609766
G2_NCM_TRIAL9_B,3,G2,NCM,9,B,G2,2.2,1.843137255,2.177810171,1.33151961,-0.123869597,WN,1.7,WN_WN,WN,WN,G,xfostered,23,3,13.3,3/20/22,15,R,1.58,ok?,-0.286,0.0417,0.001259,NA,Bad,N,N,Inverted,0.257071429,0.347142857,0.382571429,0.057071429,0.147142857,0.182571429,NA,0.842304088,N,0.145804196,Broad,Broad,NCM,-0.356862745,8.152003076
G3_FL_TRIAL1_B,3,G3,FL,1,B,G3,3.153846154,3.936651584,1.625123269,2.098835501,0.329052778,WN,1.7,WN_WN,WN,WN,G,xfostered,25,5,13,3/23/22,15,L,0.95,x,-0.563,0.23,0.00048,NA,Good,N,N,Inverted,0.120285714,0.2725,0.181285714,-0.079714286,0.0725,-0.018714286,0.355,0.441906976,N,0.408525755,Field L,Field L,Broad,0.78280543,5.724452817
G3_FL_TRIAL10_A,3,G3,FL,10,A,G3,2.846153846,19.90950226,1.675616993,10.77676961,1.73529889,WN,1.7,WN_WN,WN,WN,G,xfostered,25,5,13,3/23/22,15,R,1.37,x,-0.707,0.165,3.00E-04,NA,Bad,Y,N,Inverted; Lost spot after 600s,0.38725,0.544333333,0.545,0.18725,0.344333333,0.345,0.05,0.000244141,Y,0.233380481,Field L,Field L,Narrow,17.06334841,97.69787678
G3_FL_TRIAL10_B,3,G3,FL,10,B,G3,0.538461538,7.782805429,0.776250026,5.596762566,1.286927597,WN,1.7,WN_WN,WN,WN,G,xfostered,25,5,13,3/23/22,15,R,1.37,x,0.704,-0.202,0.00036,NA,Duplicate,Y,Y,Trough before peak; Lost spot after 600s,0.418,0.367333333,0.402166667,0.218,0.167333333,0.202166667,0.075,0.000244141,Y,0.286931818,Field L,Field L,Narrow,7.244343891,31.51708605
G3_FL_TRIAL11_A,3,G3,FL,11,A,G3,1.142857143,7.058823529,1.167320591,4.28552416,1.614174069,WN,1.7,WN_WN,WN,WN,G,xfostered,25,5,13,3/23/22,15,R,1.42,x,0.629,-0.154,0.0003599,NA,Bad,Y,Y,Trough before peak?; Lost spot after 465s,0.46325,0.388583333,0.47825,0.26325,0.188583333,0.27825,0.035,0.001661694,Y,0.244833068,Field L,Field L,Narrow,5.915966386,13.78137137
