ID.x,Region,Trial,Letter,Stimulus,Unit2,StimSet,base_fr,stim_fr,basesd,stimsd,Z_score,stimID,Duration.s,Species,FamUnfam,Clutch,Treatment,Age,DaysPostFledge,Mass,Date,No_reps,Hemisphere,Depth,ISI.check,Peak_V,Trough_V,Peak.to.Peak_s,Type,Quality,Exclude4PC,TroughBeforePeak,Notes,Accuracy.rcorr,Accuracy.count,Accuracy.cross_corr,normal_rcorr,normal_count,normal_cross_corr,Latency,p.value,sigYN,Peak2PeakRatio
A2,FL,1,A,1,A2_FL_TRIAL1_A,A2,4.636363636,7.553475935,2.335496832,2.256548263,1.074639566,ALP47,1.36,ZEBI,Unfamiliar,A,xfostered,23,2,9.6,5/22/21,15,R,1.12,x,-0.979,0.39,0.000479999,NA,Good,Y,N,Inverted but beautiful,0.540222222,0.213444444,0.476888889,0.340222222,0.013444444,0.276888889,0.03,0.009765625,Y,0.398365679
A2,FL,1,A,2,A2_FL_TRIAL1_A,A2,3.333333333,4.806201551,2.188122206,1.448370129,0.614331459,DB22P31,2.15,BEFI,FosterFather,A,xfostered,23,2,9.6,5/22/21,15,R,1.12,x,-0.979,0.39,0.000479999,NA,Good,Y,N,Inverted but beautiful,0.318111111,0.421,0.379777778,0.118111111,0.221,0.179777778,NA,0.077442085,N,0.398365679
A2,FL,1,A,3,A2_FL_TRIAL1_A,A2,4.5,5.411764706,2.592724864,1.380926812,0.296352427,WN,1.7,WN,WN,A,xfostered,23,2,9.6,5/22/21,15,R,1.12,x,-0.979,0.39,0.000479999,NA,Good,Y,N,Inverted but beautiful,0.173777778,0.171444444,0.165777778,-0.026222222,-0.028555556,-0.034222222,0.01,0.385652987,N,0.398365679
A2,FL,1,A,4,A2_FL_TRIAL1_A,A2,3.846153846,5.338691159,2.511511957,2.235614512,0.526556025,BR90,1.34,BEFI,Unfamiliar,A,xfostered,23,2,9.6,5/22/21,15,R,1.12,x,-0.979,0.39,0.000479999,NA,Good,Y,N,Inverted but beautiful,0.273777778,0.319444444,0.305555556,0.073777778,0.119444444,0.105555556,0.115,0.167724609,N,0.398365679
A2,FL,1,A,5,A2_FL_TRIAL1_A,A2,4.7,6.341463415,2.830390629,1.099387648,0.603429957,P192P193,2.87,ZEBI,Father,A,xfostered,23,2,9.6,5/22/21,15,R,1.12,x,-0.979,0.39,0.000479999,NA,Good,Y,N,Inverted but beautiful,0.453333333,0.303555556,0.413111111,0.253333333,0.103555556,0.213111111,0.255,0.10546875,N,0.398365679
A2,FL,1,B,1,A2_FL_TRIAL1_B,A2,2.272727273,5.147058824,1.348399725,2.131084816,1.662983222,ALP47,1.36,ZEBI,Unfamiliar,A,xfostered,23,2,9.6,5/22/21,15,R,1.12,x,0.931,0,0.0032,NA,Bad,Y,N,ISI and PSTH look good but shape is gross; fat with no hyperpolarization,0.408777778,0.257555556,0.387222222,0.208777778,0.057555556,0.187222222,0.01,0.002929688,Y,0
A2,FL,1,B,2,A2_FL_TRIAL1_B,A2,1.5,4.186046512,1.445997611,1.206371469,1.597285011,DB22P31,2.15,BEFI,FosterFather,A,xfostered,23,2,9.6,5/22/21,15,R,1.12,x,0.931,0,0.0032,NA,Bad,Y,N,ISI and PSTH look good but shape is gross; fat with no hyperpolarization,0.473222222,0.29,0.497555556,0.273222222,0.09,0.297555556,0.01,0.002441406,Y,0
A2,FL,1,B,3,A2_FL_TRIAL1_B,A2,2.1,3.05882353,1.286683938,1.488130664,0.580848176,WN,1.7,WN,WN,A,xfostered,23,2,9.6,5/22/21,15,R,1.12,x,0.931,0,0.0032,NA,Bad,Y,N,ISI and PSTH look good but shape is gross; fat with no hyperpolarization,0.209111111,0.390777778,0.303555556,0.009111111,0.190777778,0.103555556,0.015,0.16015625,N,0
A2,FL,1,B,4,A2_FL_TRIAL1_B,A2,2.307692308,5.970149253,1.182131929,2.953816439,1.286853416,BR90,1.34,BEFI,Unfamiliar,A,xfostered,23,2,9.6,5/22/21,15,R,1.12,x,0.931,0,0.0032,NA,Bad,Y,N,ISI and PSTH look good but shape is gross; fat with no hyperpolarization,0.554333333,0.120222222,0.530777778,0.354333333,-0.079777778,0.330777778,0.025,0.004154489,Y,0
A2,FL,1,B,5,A2_FL_TRIAL1_B,A2,2.3,4.808362369,1.702938637,1.744481613,0.877708734,P192P193,2.87,ZEBI,Father,A,xfostered,23,2,9.6,5/22/21,15,R,1.12,x,0.931,0,0.0032,NA,Bad,Y,N,ISI and PSTH look good but shape is gross; fat with no hyperpolarization,0.462777778,0.387888889,0.468111111,0.262777778,0.187888889,0.268111111,0.23,0.037109375,Y,0
A2,FL,2,A,1,A2_FL_TRIAL2_A,A2,5,17.33193277,3.882901374,6.440659171,2.826543065,ALP47,1.36,ZEBI,Unfamiliar,A,xfostered,23,2,9.6,5/22/21,15,R,1.22,x,-0.774,0.001,0.000240002,NA,Good,N,N,Inverted,0.759125,0.530125,0.736375,0.559125,0.330125,0.536375,0.02,0.00012207,Y,0.00129199
A2,FL,2,A,2,A2_FL_TRIAL2_A,A2,4.214285714,12.59136213,2.665407212,3.914739225,2.007783387,DB22P31,2.15,BEFI,FosterFather,A,xfostered,23,2,9.6,5/22/21,15,R,1.22,x,-0.774,0.001,0.000240002,NA,Good,N,N,Inverted,0.80025,0.624,0.839,0.60025,0.424,0.639,0.045,0.000244141,Y,0.00129199
A2,FL,2,A,3,A2_FL_TRIAL2_A,A2,5.076923077,7.78280543,2.782730627,4.181258276,0.669234915,WN,1.7,WN,WN,A,xfostered,23,2,9.6,5/22/21,15,R,1.22,x,-0.774,0.001,0.000240002,NA,Good,N,N,Inverted,0.1595,0.693,0.206,-0.0405,0.493,0.006,NA,0.068115234,N,0.00129199
A2,FL,2,A,4,A2_FL_TRIAL2_A,A2,5.333333333,23.13432836,2.964435661,5.011176477,4.931675475,BR90,1.34,BEFI,Unfamiliar,A,xfostered,23,2,9.6,5/22/21,15,R,1.22,x,-0.774,0.001,0.000240002,NA,Good,N,N,Inverted,0.881125,0.5875,0.775375,0.681125,0.3875,0.575375,0.015,0.000488281,Y,0.00129199
A2,FL,2,A,5,A2_FL_TRIAL2_A,A2,6.888888889,17.96360821,3.218867986,2.169749324,2.72788803,P192P193,2.87,ZEBI,Father,A,xfostered,23,2,9.6,5/22/21,15,R,1.22,x,-0.774,0.001,0.000240002,NA,Good,N,N,Inverted,0.841,0.552,0.844375,0.641,0.352,0.644375,0.245,0.00390625,Y,0.00129199
A2,FL,2,B,1,A2_FL_TRIAL2_B,A2,3.714285714,12.55252101,3.049049573,4.490847442,2.170509502,ALP47,1.36,ZEBI,Unfamiliar,A,xfostered,23,2,9.6,5/22/21,15,R,1.22,x,0.733,0.06,0.001020065,NA,Good,N,N,,0.636375,0.504,0.680625,0.436375,0.304,0.480625,0.01,0.00012207,Y,0.081855389
A2,FL,2,B,2,A2_FL_TRIAL2_B,A2,3.785714286,10.96345515,1.968153036,3.062028982,2.100256157,DB22P31,2.15,BEFI,FosterFather,A,xfostered,23,2,9.6,5/22/21,15,R,1.22,x,0.733,0.06,0.001020065,NA,Good,N,N,,0.861625,0.699375,0.8645,0.661625,0.499375,0.6645,0.045,0.00109394,Y,0.081855389
A2,FL,2,B,3,A2_FL_TRIAL2_B,A2,6,6.28959276,8.582928793,4.134312322,0.030417717,WN,1.7,WN,WN,A,xfostered,23,2,9.6,5/22/21,15,R,1.22,x,0.733,0.06,0.001020065,NA,Good,N,N,,0.101375,0.73575,0.20475,-0.098625,0.53575,0.00475,NA,0.100421328,N,0.081855389
A2,FL,2,B,4,A2_FL_TRIAL2_B,A2,2.833333333,19.52736318,2.367712104,4.520748046,5.318579829,BR90,1.34,BEFI,Unfamiliar,A,xfostered,23,2,9.6,5/22/21,15,R,1.22,x,0.733,0.06,0.001020065,NA,Good,N,N,,0.783875,0.30075,0.695625,0.583875,0.10075,0.495625,0.01,0.002516497,Y,0.081855389
A2,FL,2,B,5,A2_FL_TRIAL2_B,A2,5,16.2601626,2.549509757,2.395074406,4.439099307,P192P193,2.87,ZEBI,Father,A,xfostered,23,2,9.6,5/22/21,15,R,1.22,x,0.733,0.06,0.001020065,NA,Good,N,N,,0.95375,0.685375,0.94925,0.75375,0.485375,0.74925,0.24,0.009090698,Y,0.081855389
A2,FL,3,A,1,A2_FL_TRIAL3_A,A2,0.714285714,8.508403361,0.913873533,2.171954117,3.606251419,ALP47,1.36,ZEBI,Unfamiliar,A,xfostered,23,2,9.6,5/22/21,15,R,1.38,x,0.692,-0.159,0.00018,NA,Good,N,Y,Trough before peak,0.444111111,0.445,0.369222222,0.244111111,0.245,0.169222222,0.065,0.001090835,Y,0.229768786
A2,FL,3,A,2,A2_FL_TRIAL3_A,A2,0.923076923,5.080500895,1.497861724,1.874573814,2.234973582,DB22P31,2.15,BEFI,FosterFather,A,xfostered,23,2,9.6,5/22/21,15,R,1.38,x,0.692,-0.159,0.00018,NA,Good,N,Y,Trough before peak,0.276111111,0.436666667,0.384,0.076111111,0.236666667,0.184,0.04,0.001650813,Y,0.229768786
A2,FL,3,A,3,A2_FL_TRIAL3_A,A2,1.4,3.176470588,1.505545305,2.256180371,1.091800848,WN,1.7,WN,WN,A,xfostered,23,2,9.6,5/22/21,15,R,1.38,x,0.692,-0.159,0.00018,NA,Good,N,Y,Trough before peak,0.138111111,0.356555556,0.231111111,-0.061888889,0.156555556,0.031111111,0.04,0.014369289,Y,0.229768786
A2,FL,3,A,4,A2_FL_TRIAL3_A,A2,0.785714286,10.12793177,1.121713759,2.530115503,4.580216583,BR90,1.34,BEFI,Unfamiliar,A,xfostered,23,2,9.6,5/22/21,15,R,1.38,x,0.692,-0.159,0.00018,NA,Good,N,Y,Trough before peak,0.619666667,0.302888889,0.569666667,0.419666667,0.102888889,0.369666667,0.01,0.001087736,Y,0.229768786
A2,FL,3,A,5,A2_FL_TRIAL3_A,A2,1.1,8.222996516,1.449137675,2.117519197,2.316341778,P192P193,2.87,ZEBI,Father,A,xfostered,23,2,9.6,5/22/21,15,R,1.38,x,0.692,-0.159,0.00018,NA,Good,N,Y,Trough before peak,0.580555556,0.515111111,0.548444444,0.380555556,0.315111111,0.348444444,0.19,0.001953125,Y,0.229768786
A2,FL,4,A,1,A2_FL_TRIAL4_A,A2,4.210526316,11.02941176,2.439921387,3.342691593,1.659740528,ALP47,1.36,ZEBI,Unfamiliar,A,xfostered,23,2,9.6,5/22/21,20,R,1.47,x,-0.755,0.29,0.000180001,NA,Good,N,N,Inverted,0.455583333,0.281833333,0.410083333,0.255583333,0.081833333,0.210083333,0.045,1.14E-05,Y,0.38410596
A2,FL,4,A,2,A2_FL_TRIAL4_A,A2,3.55,8.767441861,2.114486375,1.689008921,1.867298647,DB22P31,2.15,BEFI,FosterFather,A,xfostered,23,2,9.6,5/22/21,20,R,1.47,x,-0.755,0.29,0.000180001,NA,Good,N,N,Inverted,0.261166667,0.244083333,0.33375,0.061166667,0.044083333,0.13375,0.095,3.81E-06,Y,0.38410596
A2,FL,4,A,3,A2_FL_TRIAL4_A,A2,3.157894737,4.829721362,1.675415633,1.693315753,0.678542141,WN,1.7,WN,WN,A,xfostered,23,2,9.6,5/22/21,20,R,1.47,x,-0.755,0.29,0.000180001,NA,Good,N,N,Inverted,0.264666667,0.615083333,0.32275,0.064666667,0.415083333,0.12275,0.345,0.018540442,Y,0.38410596
A2,FL,4,A,4,A2_FL_TRIAL4_A,A2,3,11.64179104,1.946657054,3.056874137,2.816600709,BR90,1.34,BEFI,Unfamiliar,A,xfostered,23,2,9.6,5/22/21,20,R,1.47,x,-0.755,0.29,0.000180001,NA,Good,N,N,Inverted,0.6125,0.361333333,0.528833333,0.4125,0.161333333,0.328833333,0.04,9.54E-05,Y,0.38410596
A2,FL,4,A,5,A2_FL_TRIAL4_A,A2,2.230769231,10.93540606,1.423250163,1.338469452,4.969720284,P192P193,2.87,ZEBI,Father,A,xfostered,23,2,9.6,5/22/21,20,R,1.47,x,-0.755,0.29,0.000180001,NA,Good,N,N,Inverted,0.57025,0.484416667,0.554333333,0.37025,0.284416667,0.354333333,0.24,0.000244141,Y,0.38410596
A2,FL,5,A,1,A2_FL_TRIAL5_A,A2,1.928571429,12.07983193,1.439245834,4.27497482,2.783306844,ALP47,1.36,ZEBI,Unfamiliar,A,xfostered,23,2,9.6,5/22/21,15,L,1.39,x,0.672,-0.201,0.000179998,NA,Good,N,N,Higher peak was after lower peak,0.800727273,0.559181818,0.739727273,0.600727273,0.359181818,0.539727273,0.04,0.00109394,Y,0.299107143
A2,FL,5,A,2,A2_FL_TRIAL5_A,A2,1.666666667,7.968992248,1.718249386,2.485322233,2.812544153,DB22P31,2.15,BEFI,FosterFather,A,xfostered,23,2,9.6,5/22/21,15,L,1.39,x,0.672,-0.201,0.000179998,NA,Good,N,N,Higher peak was after lower peak,0.561,0.513909091,0.593454545,0.361,0.313909091,0.393454545,0.09,0.000721126,Y,0.299107143
A2,FL,5,A,3,A2_FL_TRIAL5_A,A2,1.533333333,2.352941176,1.641718032,0.969122907,0.410812844,WN,1.7,WN,WN,A,xfostered,23,2,9.6,5/22/21,15,L,1.39,x,0.672,-0.201,0.000179998,NA,Good,N,N,Higher peak was after lower peak,0.076454545,0.829909091,0.115545455,-0.123545455,0.629909091,-0.084454545,0.385,0.221668335,N,0.299107143
A2,FL,5,A,4,A2_FL_TRIAL5_A,A2,2.333333333,13.93034826,2.023669463,4.170973917,3.560868326,BR90,1.34,BEFI,Unfamiliar,A,xfostered,23,2,9.6,5/22/21,15,L,1.39,x,0.672,-0.201,0.000179998,NA,Good,N,N,Higher peak was after lower peak,0.423727273,0.314181818,0.348363636,0.223727273,0.114181818,0.148363636,0.01,0.000724715,Y,0.299107143
A2,FL,5,A,5,A2_FL_TRIAL5_A,A2,3.5,11.67247387,7.810249676,4.083701531,1.429462415,P192P193,2.87,ZEBI,Father,A,xfostered,23,2,9.6,5/22/21,15,L,1.39,x,0.672,-0.201,0.000179998,NA,Good,N,N,Higher peak was after lower peak,0.867545455,0.578909091,0.829272727,0.667545455,0.378909091,0.629272727,0.25,0.004882813,Y,0.299107143
A2,FL,5,B,1,A2_FL_TRIAL5_B,A2,2.142857143,13.60294118,2.507132682,5.530708305,2.872682651,ALP47,1.36,ZEBI,Unfamiliar,A,xfostered,23,2,9.6,5/22/21,15,L,1.39,x,-0.85,0.357,0.000120009,NA,Good,N,N,Inverted,0.607090909,0.351,0.587545455,0.407090909,0.151,0.387545455,0.05,0.00012207,Y,0.42
A2,FL,5,B,2,A2_FL_TRIAL5_B,A2,1.266666667,8.775193799,1.437590577,4.073293838,2.211080918,DB22P31,2.15,BEFI,FosterFather,A,xfostered,23,2,9.6,5/22/21,15,L,1.39,x,-0.85,0.357,0.000120009,NA,Good,N,N,Inverted,0.417454545,0.459909091,0.500545455,0.217454545,0.259909091,0.300545455,0.07,6.10E-05,Y,0.42
A2,FL,5,B,3,A2_FL_TRIAL5_B,A2,1.8,2.980392157,2.077085871,1.714505396,0.625594045,WN,1.7,WN,WN,A,xfostered,23,2,9.6,5/22/21,15,L,1.39,x,-0.85,0.357,0.000120009,NA,Good,N,N,Inverted,0.095363636,0.597363636,0.163181818,-0.104636364,0.397363636,-0.036818182,0.015,0.053329979,N,0.42
A2,FL,5,B,4,A2_FL_TRIAL5_B,A2,1.866666667,16.46766169,1.684664726,7.427779054,2.256522557,BR90,1.34,BEFI,Unfamiliar,A,xfostered,23,2,9.6,5/22/21,15,L,1.39,x,-0.85,0.357,0.000120009,NA,Good,N,N,Inverted,0.734363636,0.596272727,0.630363636,0.534363636,0.396272727,0.430363636,0.03,6.10E-05,Y,0.42
A2,FL,5,B,5,A2_FL_TRIAL5_B,A2,2.583333333,13.1533101,4.399552319,5.519452117,1.822198403,P192P193,2.87,ZEBI,Father,A,xfostered,23,2,9.6,5/22/21,15,L,1.39,x,-0.85,0.357,0.000120009,NA,Good,N,N,Inverted,0.549545455,0.308,0.569727273,0.349545455,0.108,0.369727273,0.115,0.000976563,Y,0.42
A2,FL,6,A,1,A2_FL_TRIAL6_A,A2,4.076923077,7.57918552,2.596842264,2.741122417,1.087066768,ALP47,1.36,ZEBI,Unfamiliar,A,xfostered,23,2,9.6,5/22/21,15,L,1.44,x,0.7,-0.042,0.001259771,NA,Good,N,N,,0.468090909,0.232909091,0.398454545,0.268090909,0.032909091,0.198454545,0.04,0.001708984,Y,0.06
A2,FL,6,A,2,A2_FL_TRIAL6_A,A2,5.916666667,6.201550388,6.287915297,2.526876687,0.043445313,DB22P31,2.15,BEFI,FosterFather,A,xfostered,23,2,9.6,5/22/21,15,L,1.44,x,0.7,-0.042,0.001259771,NA,Good,N,N,,0.611909091,0.473454545,0.628181818,0.411909091,0.273454545,0.428181818,0.06,0.301269531,N,0.06
A2,FL,6,A,3,A2_FL_TRIAL6_A,A2,6.923076923,3.393665158,5.235480533,2.391278923,-0.819599075,WN,1.7,WN,WN,A,xfostered,23,2,9.6,5/22/21,15,L,1.44,x,0.7,-0.042,0.001259771,NA,Good,N,N,,0.133636364,0.453727273,0.246272727,-0.066363636,0.253727273,0.046272727,NA,0.032714844,Y,0.06
A2,FL,6,A,4,A2_FL_TRIAL6_A,A2,4.666666667,9.004975124,3.177300441,2.561447164,1.083110983,BR90,1.34,BEFI,Unfamiliar,A,xfostered,23,2,9.6,5/22/21,15,L,1.44,x,0.7,-0.042,0.001259771,NA,Good,N,N,,0.536636364,0.253545455,0.505818182,0.336636364,0.053545455,0.305818182,0.04,0.002624512,Y,0.06
A2,FL,6,A,5,A2_FL_TRIAL6_A,A2,4.916666667,5.807200929,4.776045023,2.254837012,0.292856404,P192P193,2.87,ZEBI,Father,A,xfostered,23,2,9.6,5/22/21,15,L,1.44,x,0.7,-0.042,0.001259771,NA,Good,N,N,,0.333090909,0.267454545,0.341090909,0.133090909,0.067454545,0.141090909,0.265,0.052246094,N,0.06
A2,FL,6,B,1,A2_FL_TRIAL6_B,A2,4.461538462,6.052036199,2.75727476,2.670677685,0.419365363,ALP47,1.36,ZEBI,Unfamiliar,A,xfostered,23,2,9.6,5/22/21,15,L,1.44,x,-0.865,0.114,0.001019992,NA,Good,N,N,Inverted,0.477,0.300636364,0.439727273,0.277,0.100636364,0.239727273,0.14,0.208273894,N,0.131791908
A2,FL,6,B,2,A2_FL_TRIAL6_B,A2,4.166666667,5.07751938,3.298300756,2.849682031,0.248571423,DB22P31,2.15,BEFI,FosterFather,A,xfostered,23,2,9.6,5/22/21,15,L,1.44,x,-0.865,0.114,0.001019992,NA,Good,N,N,Inverted,0.500181818,0.308363636,0.561909091,0.300181818,0.108363636,0.361909091,0.09,0.266113281,N,0.131791908
A2,FL,6,B,3,A2_FL_TRIAL6_B,A2,2.461538462,3.665158371,2.22168797,2.75021071,0.649089468,WN,1.7,WN,WN,A,xfostered,23,2,9.6,5/22/21,15,L,1.44,x,-0.865,0.114,0.001019992,NA,Good,N,N,Inverted,0.128,0.324363636,0.161545455,-0.072,0.124363636,-0.038454545,NA,0.065257257,N,0.131791908
A2,FL,6,B,4,A2_FL_TRIAL6_B,A2,4.066666667,6.417910448,3.731462116,3.782169825,0.622703316,BR90,1.34,BEFI,Unfamiliar,A,xfostered,23,2,9.6,5/22/21,15,L,1.44,x,-0.865,0.114,0.001019992,NA,Good,N,N,Inverted,0.334454545,0.285272727,0.241636364,0.134454545,0.085272727,0.041636364,0.02,0.055358887,N,0.131791908
A2,FL,6,B,5,A2_FL_TRIAL6_B,A2,3.583333333,5.952380953,2.778434266,3.476260343,1.115934384,P192P193,2.87,ZEBI,Father,A,xfostered,23,2,9.6,5/22/21,15,L,1.44,x,-0.865,0.114,0.001019992,NA,Good,N,N,Inverted,0.420272727,0.283363636,0.458909091,0.220272727,0.083363636,0.258909091,0.235,0.009277344,Y,0.131791908
A2,FL,7,A,1,A2_FL_TRIAL7_A,A2,0.6,2.156862745,0.828078671,1.057051895,1.565029392,ALP47,1.36,ZEBI,Unfamiliar,A,xfostered,23,2,9.6,5/22/21,15,L,1.54,x,0.772,-0.03,0.001259961,NA,Bad,N,N,,0.388875,0.267,0.33475,0.188875,0.067,0.13475,0.19,0.001073958,Y,0.038860104
A2,FL,7,A,2,A2_FL_TRIAL7_A,A2,0.692307692,1.288014311,0.947330933,0.952331424,0.408677668,DB22P31,2.15,BEFI,FosterFather,A,xfostered,23,2,9.6,5/22/21,15,L,1.54,x,0.772,-0.03,0.001259961,NA,Bad,N,N,,0.358,0.249875,0.365125,0.158,0.049875,0.165125,0.05,0.169646283,N,0.038860104
A2,FL,7,A,3,A2_FL_TRIAL7_A,A2,1.4,0.274509804,2.028370211,0.376435573,-0.5659053,WN,1.7,WN,WN,A,xfostered,23,2,9.6,5/22/21,15,L,1.54,x,0.772,-0.03,0.001259961,NA,Bad,N,N,,0.132,0.62175,0.515,-0.068,0.42175,0.315,NA,0.02452963,Y,0.038860104
A2,FL,7,A,4,A2_FL_TRIAL7_A,A2,0.538461538,2.468427095,0.967417922,1.375532441,0.980630303,BR90,1.34,BEFI,Unfamiliar,A,xfostered,23,2,9.6,5/22/21,15,L,1.54,x,0.772,-0.03,0.001259961,NA,Bad,N,N,,0.479,0.181375,0.41075,0.279,-0.018625,0.21075,0.01,0.009605267,Y,0.038860104
A2,FL,7,A,5,A2_FL_TRIAL7_A,A2,0.111111111,2.206736353,0.333333333,1.101838906,1.783157568,P192P193,2.87,ZEBI,Father,A,xfostered,23,2,9.6,5/22/21,15,L,1.54,x,0.772,-0.03,0.001259961,NA,Bad,N,N,,0.398375,0.3755,0.3605,0.198375,0.1755,0.1605,0.23,0.009029911,Y,0.038860104
A2,FL,7,B,1,A2_FL_TRIAL7_B,A2,0.4,1.078431373,0.828078671,0.779484432,0.622943582,ALP47,1.36,ZEBI,Unfamiliar,A,xfostered,23,2,9.6,5/22/21,15,L,1.54,x,-1.054,0.157,0.000359963,NA,Bad,N,N,Inverted,0.28325,0.176125,0.135625,0.08325,-0.023875,-0.064375,0.21,0.057404377,N,0.148956357
A2,FL,7,B,2,A2_FL_TRIAL7_B,A2,1,2.182468694,1.870828693,1.475533477,0.436650105,DB22P31,2.15,BEFI,FosterFather,A,xfostered,23,2,9.6,5/22/21,15,L,1.54,x,-1.054,0.157,0.000359963,NA,Bad,N,N,Inverted,0.294625,0.209125,0.2895,0.094625,0.009125,0.0895,0.01,0.107865634,N,0.148956357
A2,FL,7,B,3,A2_FL_TRIAL7_B,A2,0.666666667,0.588235294,0.899735411,0.544600059,-0.071584615,WN,1.7,WN,WN,A,xfostered,23,2,9.6,5/22/21,15,L,1.54,x,-1.054,0.157,0.000359963,NA,Bad,N,N,Inverted,0.1395,0.34,0.40525,-0.0605,0.14,0.20525,NA,0.622460656,N,0.148956357
A2,FL,7,B,4,A2_FL_TRIAL7_B,A2,0.384615385,2.066590126,0.506369684,1.527994449,1.318860362,BR90,1.34,BEFI,Unfamiliar,A,xfostered,23,2,9.6,5/22/21,15,L,1.54,x,-1.054,0.157,0.000359963,NA,Bad,N,N,Inverted,0.501125,0.51,0.451875,0.301125,0.31,0.251875,NA,0.004990659,Y,0.148956357
A2,FL,7,B,5,A2_FL_TRIAL7_B,A2,0.222222222,1.200154859,0.440958552,0.890227045,1.255944765,P192P193,2.87,ZEBI,Father,A,xfostered,23,2,9.6,5/22/21,15,L,1.54,x,-1.054,0.157,0.000359963,NA,Bad,N,N,Inverted,0.193125,0.247875,0.288,-0.006875,0.047875,0.088,0.36,0.014147404,Y,0.148956357
A2,NCM,1,A,1,A2_NCM_TRIAL1_A,A2,10.81818182,33.35561497,3.156522828,5.435934748,4.790050487,ALP47,1.36,ZEBI,Unfamiliar,A,xfostered,23,2,9.6,5/22/21,15,R,1.14,x,0.4347,-0.131,0.000179999,NA,Good,Y,N,,0.962888889,0.848666667,0.964,0.762888889,0.648666667,0.764,0.045,0.000976563,Y,0.301357258
A2,NCM,1,A,2,A2_NCM_TRIAL1_A,A2,10.91666667,28.4496124,4.71859635,5.216520722,2.934432505,DB22P31,2.15,BEFI,FosterFather,A,xfostered,23,2,9.6,5/22/21,15,R,1.14,x,0.4347,-0.131,0.000179999,NA,Good,Y,N,,1,0.941444444,1,0.8,0.741444444,0.8,0.06,0.000488281,Y,0.301357258
A2,NCM,1,A,3,A2_NCM_TRIAL1_A,A2,9.5,13.05882353,2.990726407,2.430107199,1.36185254,WN,1.7,WN,WN,A,xfostered,23,2,9.6,5/22/21,15,R,1.14,x,0.4347,-0.131,0.000179999,NA,Good,Y,N,,0.869222222,1,0.931222222,0.669222222,0.8,0.731222222,0.025,0.00390625,Y,0.301357258
A2,NCM,1,A,4,A2_NCM_TRIAL1_A,A2,11.23076923,33.7543054,3.539158237,7.40746889,3.764105769,BR90,1.34,BEFI,Unfamiliar,A,xfostered,23,2,9.6,5/22/21,15,R,1.14,x,0.4347,-0.131,0.000179999,NA,Good,Y,N,,0.988,0.822666667,0.968,0.788,0.622666667,0.768,0.03,0.000244141,Y,0.301357258
A2,NCM,1,A,5,A2_NCM_TRIAL1_A,A2,11.5,34.45993031,2.677063067,2.880043816,4.770087548,P192P193,2.87,ZEBI,Father,A,xfostered,23,2,9.6,5/22/21,15,R,1.14,x,0.4347,-0.131,0.000179999,NA,Good,Y,N,,1,0.938777778,1,0.8,0.738777778,0.8,0.23,0.001953125,Y,0.301357258
A2,NCM,2,A,1,A2_NCM_TRIAL2_A,A2,2.714285714,6.355042017,3.429029273,6.348912167,1.072737299,ALP47,1.36,ZEBI,Unfamiliar,A,xfostered,23,2,9.6,5/22/21,15,R,1.24,x,0.3594,0.0343,0.000899996,NA,Good,N,N,,0.554,0.316875,0.57825,0.354,0.116875,0.37825,0.035,0.006891295,Y,0.095436839
A2,NCM,2,A,2,A2_NCM_TRIAL2_A,A2,3.357142857,6.212624585,4.781489032,6.609555344,0.777754457,DB22P31,2.15,BEFI,FosterFather,A,xfostered,23,2,9.6,5/22/21,15,R,1.24,x,0.3594,0.0343,0.000899996,NA,Good,N,N,,0.589375,0.54,0.62525,0.389375,0.34,0.42525,0.065,0.016601563,Y,0.095436839
A2,NCM,2,A,3,A2_NCM_TRIAL2_A,A2,3.076923077,3.303167421,3.882901374,3.099079574,0.062420578,WN,1.7,WN,WN,A,xfostered,23,2,9.6,5/22/21,15,R,1.24,x,0.3594,0.0343,0.000899996,NA,Good,N,N,,0.1055,0.54575,0.195875,-0.0945,0.34575,-0.004125,0.025,0.575987029,N,0.095436839
A2,NCM,2,A,4,A2_NCM_TRIAL2_A,A2,4.25,13.12189055,4.55521679,9.170072739,1.264086457,BR90,1.34,BEFI,Unfamiliar,A,xfostered,23,2,9.6,5/22/21,15,R,1.24,x,0.3594,0.0343,0.000899996,NA,Good,N,N,,0.5475,0.19575,0.42925,0.3475,-0.00425,0.22925,0.04,0.003251806,Y,0.095436839
A2,NCM,2,A,5,A2_NCM_TRIAL2_A,A2,4,11.2659698,5.315072906,6.303154186,NA,P192P193,2.87,ZEBI,Father,A,xfostered,23,2,9.6,5/22/21,15,R,1.24,x,0.3594,0.0343,0.000899996,NA,Good,N,N,,0.69725,0.4035,0.703375,0.49725,0.2035,0.503375,0.235,0.00390625,Y,0.095436839
A2,NCM,2,B,1,A2_NCM_TRIAL2_B,A2,0.714285714,2.993697479,1.437335753,3.230460778,0.819828871,ALP47,1.36,ZEBI,Unfamiliar,A,xfostered,23,2,9.6,5/22/21,15,R,1.24,x,-0.3945,0.0247,0.001259966,NA,Good,N,N,Inverted; might not be auditory,0.367,0.259125,0.206625,0.167,0.059125,0.006625,0.01,0.006759078,Y,0.0626109
A2,NCM,2,B,2,A2_NCM_TRIAL2_B,A2,2.071428571,2.757475082,3.173551413,4.474142209,0.319605035,DB22P31,2.15,BEFI,FosterFather,A,xfostered,23,2,9.6,5/22/21,15,R,1.24,x,-0.3945,0.0247,0.001259966,NA,Good,N,N,Inverted; might not be auditory,0.193625,0.245375,0.316375,-0.006375,0.045375,0.116375,0.085,0.257075114,N,0.0626109
A2,NCM,2,B,3,A2_NCM_TRIAL2_B,A2,2.153846154,2.352941176,5.193684528,2.641606585,0.03755479,WN,1.7,WN,WN,A,xfostered,23,2,9.6,5/22/21,15,R,1.24,x,-0.3945,0.0247,0.001259966,NA,Good,N,N,Inverted; might not be auditory,0.180875,0.270875,0.300125,-0.019125,0.070875,0.100125,NA,0.307119032,N,0.0626109
A2,NCM,2,B,4,A2_NCM_TRIAL2_B,A2,2.416666667,5.348258707,4.907477288,3.681255868,0.551712399,BR90,1.34,BEFI,Unfamiliar,A,xfostered,23,2,9.6,5/22/21,15,R,1.24,x,-0.3945,0.0247,0.001259966,NA,Good,N,N,Inverted; might not be auditory,0.318625,0.397875,0.477,0.118625,0.197875,0.277,0.025,0.107530921,N,0.0626109
A2,NCM,2,B,5,A2_NCM_TRIAL2_B,A2,1.222222222,3.484320557,1.986062548,2.291454083,0.898093165,P192P193,2.87,ZEBI,Father,A,xfostered,23,2,9.6,5/22/21,15,R,1.24,x,-0.3945,0.0247,0.001259966,NA,Good,N,N,Inverted; might not be auditory,0.265,0.298875,0.355625,0.065,0.098875,0.155625,0.265,0.02734375,Y,0.0626109
A2,NCM,3,B,1,A2_NCM_TRIAL3_B,A2,8.285714286,8.928571428,4.598136268,4.127907615,0.240817178,ALP47,1.36,ZEBI,Unfamiliar,A,xfostered,23,2,9.6,5/22/21,15,R,1.44,x,0.2604,-0.0164,0.001259995,NA,Bad,N,N,,0.641777778,0.498222222,0.650444444,0.441777778,0.298222222,0.450444444,0.055,0.451147469,N,0.062980031
A2,NCM,3,B,2,A2_NCM_TRIAL3_B,A2,9.538461538,10.44722719,8.62762409,3.843032388,0.152773574,DB22P31,2.15,BEFI,FosterFather,A,xfostered,23,2,9.6,5/22/21,15,R,1.44,x,0.2604,-0.0164,0.001259995,NA,Bad,N,N,,0.730111111,0.501111111,0.747444444,0.530111111,0.301111111,0.547444444,0.045,0.263348397,N,0.062980031
A2,NCM,3,B,3,A2_NCM_TRIAL3_B,A2,5.9,5.352941176,4.357624225,3.974640875,-0.148796106,WN,1.7,WN,WN,A,xfostered,23,2,9.6,5/22/21,15,R,1.44,x,0.2604,-0.0164,0.001259995,NA,Bad,N,N,,0.168444444,0.411333333,0.205222222,-0.031555556,0.211333333,0.005222222,0.135,1,N,0.062980031
A2,NCM,3,B,4,A2_NCM_TRIAL3_B,A2,7.285714286,11.72707889,4.9369653,4.714627937,0.846516046,BR90,1.34,BEFI,Unfamiliar,A,xfostered,23,2,9.6,5/22/21,15,R,1.44,x,0.2604,-0.0164,0.001259995,NA,Bad,N,N,,0.438444444,0.312444444,0.433333333,0.238444444,0.112444444,0.233333333,0.095,0.010039381,Y,0.062980031
A2,NCM,3,B,5,A2_NCM_TRIAL3_B,A2,13,14.9825784,13.80016103,7.52699268,0.350097913,P192P193,2.87,ZEBI,Father,A,xfostered,23,2,9.6,5/22/21,15,R,1.44,x,0.2604,-0.0164,0.001259995,NA,Bad,N,N,,0.794111111,0.474,0.771777778,0.594111111,0.274,0.571777778,0.23,0.275390625,N,0.062980031
A2,NCM,6,A,1,A2_NCM_TRIAL6_A,A2,6.384615385,9.84162896,4.213835575,6.689011054,0.636531584,ALP47,1.36,ZEBI,Unfamiliar,A,xfostered,23,2,9.6,5/22/21,15,L,1.02,x,0.26941,-0.04681,0.000479849,NA,Good,N,N,,0.453636364,0.197272727,0.432636364,0.253636364,-0.002727273,0.232636364,0.17,0.068115234,N,0.173750046
A2,NCM,6,A,2,A2_NCM_TRIAL6_A,A2,8.166666667,4.263565891,7.209001108,2.599763863,-0.465058159,DB22P31,2.15,BEFI,FosterFather,A,xfostered,23,2,9.6,5/22/21,15,L,1.02,x,0.26941,-0.04681,0.000479849,NA,Good,N,N,,0.472545455,0.363181818,0.519909091,0.272545455,0.163181818,0.319909091,NA,0.151367188,N,0.173750046
A2,NCM,6,A,3,A2_NCM_TRIAL6_A,A2,8.692307692,5.656108597,8.750091575,3.080414575,-0.339091663,WN,1.7,WN,WN,A,xfostered,23,2,9.6,5/22/21,15,L,1.02,x,0.26941,-0.04681,0.000479849,NA,Good,N,N,,0.141454545,0.401818182,0.179545455,-0.058545455,0.201818182,-0.020454545,NA,0.497314453,N,0.173750046
A2,NCM,6,A,4,A2_NCM_TRIAL6_A,A2,6.533333333,11.49253731,3.997618339,5.639850299,0.840468696,BR90,1.34,BEFI,Unfamiliar,A,xfostered,23,2,9.6,5/22/21,15,L,1.02,x,0.26941,-0.04681,0.000479849,NA,Good,N,N,,0.448,0.186818182,0.357636364,0.248,-0.013181818,0.157636364,0.135,0.012451172,Y,0.173750046
A2,NCM,6,A,5,A2_NCM_TRIAL6_A,A2,4.666666667,5.255516841,2.640018365,3.107456841,0.14311271,P192P193,2.87,ZEBI,Father,A,xfostered,23,2,9.6,5/22/21,15,L,1.02,x,0.26941,-0.04681,0.000479849,NA,Good,N,N,,0.236272727,0.349,0.257545455,0.036272727,0.149,0.057545455,0.365,0.469726563,N,0.173750046
A2,NCM,7,A,1,A2_NCM_TRIAL7_A,A2,10.8,14.90196078,5.595916879,7.47517449,0.8205049,ALP47,1.36,ZEBI,Unfamiliar,A,xfostered,23,2,9.6,5/22/21,15,L,0.97,x,0.28998,-0.04797,0.000839939,NA,Bad,N,N,,0.66975,0.340375,0.6745,0.46975,0.140375,0.4745,0.165,0.018066406,Y,0.165425202
A2,NCM,7,A,2,A2_NCM_TRIAL7_A,A2,10.23076923,6.511627907,8.506407841,4.134043915,-0.632418481,DB22P31,2.15,BEFI,FosterFather,A,xfostered,23,2,9.6,5/22/21,15,L,0.97,x,0.28998,-0.04797,0.000839939,NA,Bad,N,N,,0.75575,0.522875,0.801875,0.55575,0.322875,0.601875,NA,0.094238281,N,0.165425202
A2,NCM,7,A,3,A2_NCM_TRIAL7_A,A2,12.73333333,7.882352941,13.25824092,5.010123217,-0.370269979,WN,1.7,WN,WN,A,xfostered,23,2,9.6,5/22/21,15,L,0.97,x,0.28998,-0.04797,0.000839939,NA,Bad,N,N,,0.178125,0.51225,0.1995,-0.021875,0.31225,-5.00E-04,NA,0.20118884,N,0.165425202
A2,NCM,7,A,4,A2_NCM_TRIAL7_A,A2,10.23076923,16.07347876,8.166535844,5.631035779,0.757040895,BR90,1.34,BEFI,Unfamiliar,A,xfostered,23,2,9.6,5/22/21,15,L,0.97,x,0.28998,-0.04797,0.000839939,NA,Bad,N,N,,0.778,0.359875,0.70375,0.578,0.159875,0.50375,0.11,0.013427734,Y,0.165425202
A2,NCM,7,A,5,A2_NCM_TRIAL7_A,A2,8,9.330236158,5.172040216,4.82102615,0.333045711,P192P193,2.87,ZEBI,Father,A,xfostered,23,2,9.6,5/22/21,15,L,0.97,x,0.28998,-0.04797,0.000839939,NA,Bad,N,N,,0.38575,0.237,0.349875,0.18575,0.037,0.149875,NA,0.30078125,N,0.165425202
A3,FL,1,A,1,A3_FL_TRIAL1_A,A3,3.666666667,10.2676399,2.497617913,5.589453663,1.531575666,LP80,1.37,BEFI,Unfamiliar,A,normal,20,3,11.7,5/16/21,15,L,1.73,x,-0.535,0.244,0.00018,NA,Good,N,N,Drifted into the spot so first presentations not great,0.235714286,0.276571429,0.199285714,0.035714286,0.076571429,-0.000714286,0.035,0.000305176,Y,0.456074766
A3,FL,1,A,2,A3_FL_TRIAL1_A,A3,2.8,12.17171717,3.233750587,6.00943404,1.860606814,LP74,1.32,ZEBI,Unfamiliar,A,normal,20,3,11.7,5/16/21,15,L,1.73,x,-0.535,0.244,0.00018,NA,Good,N,N,Drifted into the spot so first presentations not great,0.253,0.195857143,0.265928571,0.053,-0.004142857,0.065928571,0.05,0.000724715,Y,0.456074766
A3,FL,1,A,3,A3_FL_TRIAL1_A,A3,3.133333333,11.41176471,2.669046557,5.083582174,1.662830191,WN,1.7,WN,WN,A,normal,20,3,11.7,5/16/21,15,L,1.73,x,-0.535,0.244,0.00018,NA,Good,N,N,Drifted into the spot so first presentations not great,0.160285714,0.201928571,0.182071429,-0.039714286,0.001928571,-0.017928571,0.035,0.000724715,Y,0.456074766
A3,FL,1,A,4,A3_FL_TRIAL1_A,A3,2.933333333,12.03980099,2.865226659,6.590061524,1.71346156,BR90,1.34,BEFI,Unfamiliar,A,normal,20,3,11.7,5/16/21,15,L,1.73,x,-0.535,0.244,0.00018,NA,Good,N,N,Drifted into the spot so first presentations not great,0.253785714,0.204428571,0.264142857,0.053785714,0.004428571,0.064142857,0.065,6.10E-05,Y,0.456074766
A3,FL,1,A,5,A3_FL_TRIAL1_A,A3,2.6,10.19744483,1.4040757,4.900160839,1.757096061,P192P193,2.87,ZEBI,Father,A,normal,20,3,11.7,5/16/21,15,L,1.73,x,-0.535,0.244,0.00018,NA,Good,N,N,Drifted into the spot so first presentations not great,0.266785714,0.228642857,0.273785714,0.066785714,0.028642857,0.073785714,0.045,0.000724715,Y,0.456074766
A3,FL,2,A,1,A3_FL_TRIAL2_A,A3,0.727272727,3.450564035,0.786245393,1.790655681,2.185579914,LP80,1.37,BEFI,Unfamiliar,A,normal,20,3,11.7,5/16/21,15,L,1.79,x,-1.041,0.135,0.001019988,NA,Good,N,N,Inverted,0.758714286,0.477571429,0.618,0.558714286,0.277571429,0.418,0.01,0.003822354,Y,0.129682997
A3,FL,2,A,2,A3_FL_TRIAL2_A,A3,1.083333333,4.482323232,1.378954369,2.003272151,1.858694104,LP74,1.32,ZEBI,Unfamiliar,A,normal,20,3,11.7,5/16/21,15,L,1.79,x,-1.041,0.135,0.001019988,NA,Good,N,N,Inverted,0.337714286,0.247714286,0.426,0.137714286,0.047714286,0.226,0.04,0.002506842,Y,0.129682997
A3,FL,2,A,3,A3_FL_TRIAL2_A,A3,0.636363636,2.673796791,0.809039835,1.157602712,1.698491158,WN,1.7,WN,WN,A,normal,20,3,11.7,5/16/21,15,L,1.79,x,-1.041,0.135,0.001019988,NA,Good,N,N,Inverted,0.166571429,0.206285714,0.223285714,-0.033428571,0.006285714,0.023285714,0.01,0.0038398,Y,0.129682997
A3,FL,2,A,4,A3_FL_TRIAL2_A,A3,1.75,5.78358209,1.712255291,2.29740145,2.138718635,BR90,1.34,BEFI,Unfamiliar,A,normal,20,3,11.7,5/16/21,15,L,1.79,x,-1.041,0.135,0.001019988,NA,Good,N,N,Inverted,0.343428571,0.262428571,0.417857143,0.143428571,0.062428571,0.217857143,0.13,0.000488281,Y,0.129682997
A3,FL,2,A,5,A3_FL_TRIAL2_A,A3,1.125,4.006968641,1.246423455,1.834298235,1.875136153,P192P193,2.87,ZEBI,Father,A,normal,20,3,11.7,5/16/21,15,L,1.79,x,-1.041,0.135,0.001019988,NA,Good,N,N,Inverted,0.289428571,0.307,0.288571429,0.089428571,0.107,0.088571429,0.19,0.014147404,Y,0.129682997
A3,FL,3,A,1,A3_FL_TRIAL3_A,A3,1.2,6.532846716,1.794729125,2.87592021,1.996170683,LP80,1.37,BEFI,Unfamiliar,A,normal,20,3,11.7,5/16/21,20,L,1.64,ok,-0.717,0.313,0.00018,NA,Bad,N,N,Inverted; Low S:N,0.331789474,0.350526316,0.353947368,0.131789474,0.150526316,0.153947368,0.065,9.53E-05,Y,0.436541144
A3,FL,3,A,2,A3_FL_TRIAL3_A,A3,1.2,8.333333333,1.852452144,3.334058207,1.982785872,LP74,1.32,ZEBI,Unfamiliar,A,normal,20,3,11.7,5/16/21,20,L,1.64,ok,-0.717,0.313,0.00018,NA,Bad,N,N,Inverted; Low S:N,0.378421053,0.276263158,0.367105263,0.178421053,0.076263158,0.167105263,0.045,9.49E-05,Y,0.436541144
A3,FL,3,A,3,A3_FL_TRIAL3_A,A3,2.45,6.294117647,3.410124245,3.366195086,1.156064807,WN,1.7,WN,WN,A,normal,20,3,11.7,5/16/21,20,L,1.64,ok,-0.717,0.313,0.00018,NA,Bad,N,N,Inverted; Low S:N,0.259894737,0.324,0.269473684,0.059894737,0.124,0.069473684,0.03,0.000480833,Y,0.436541144
A3,FL,3,A,4,A3_FL_TRIAL3_A,A3,1.25,7.873134327,1.860248993,2.838868415,2.709502952,BR90,1.34,BEFI,Unfamiliar,A,normal,20,3,11.7,5/16/21,20,L,1.64,ok,-0.717,0.313,0.00018,NA,Bad,N,N,Inverted; Low S:N,0.363,0.181631579,0.340157895,0.163,-0.018368421,0.140157895,0.01,9.49E-05,Y,0.436541144
A3,FL,3,A,5,A3_FL_TRIAL3_A,A3,1.9,7.421602787,2.314712668,1.955079883,1.804850054,P192P193,2.87,ZEBI,Father,A,normal,20,3,11.7,5/16/21,20,L,1.64,ok,-0.717,0.313,0.00018,NA,Bad,N,N,Inverted; Low S:N,0.273105263,0.189578947,0.264578947,0.073105263,-0.010421053,0.064578947,0.045,0.000203265,Y,0.436541144
A3,FL,4,A,1,A3_FL_TRIAL4_A,A3,0.75,2.00729927,1.164157703,1.672472881,0.631496534,LP80,1.37,BEFI,Unfamiliar,A,normal,20,3,11.7,5/16/21,20,L,1.49,x,-0.942,0.161,0.000420001,NA,Good,N,N,Inverted,0.324882353,0.248411765,0.227588235,0.124882353,0.048411765,0.027588235,0.05,0.014825013,Y,0.170912951
A3,FL,4,A,2,A3_FL_TRIAL4_A,A3,0.45,3.181818182,0.759154655,1.359643276,1.6193367,LP74,1.32,ZEBI,Unfamiliar,A,normal,20,3,11.7,5/16/21,20,L,1.49,x,-0.942,0.161,0.000420001,NA,Good,N,N,Inverted,0.283058824,0.129470588,0.293235294,0.083058824,-0.070529412,0.093235294,0.02,0.000148698,Y,0.170912951
A3,FL,4,A,3,A3_FL_TRIAL4_A,A3,0.75,1.617647059,1.069923755,1.829312711,0.465302091,WN,1.7,WN,WN,A,normal,20,3,11.7,5/16/21,20,L,1.49,x,-0.942,0.161,0.000420001,NA,Good,N,N,Inverted,0.163117647,0.322470588,0.213647059,-0.036882353,0.122470588,0.013647059,0.045,0.046062879,Y,0.170912951
A3,FL,4,A,4,A3_FL_TRIAL4_A,A3,0.611111111,2.072968491,1.036900863,1.460489013,0.948306068,BR90,1.34,BEFI,Unfamiliar,A,normal,20,3,11.7,5/16/21,20,L,1.49,x,-0.942,0.161,0.000420001,NA,Good,N,N,Inverted,0.171941176,0.279058824,0.249882353,-0.028058824,0.079058824,0.049882353,0.155,0.002822034,Y,0.170912951
A3,FL,4,A,5,A3_FL_TRIAL4_A,A3,0.55,2.212543554,0.759154655,1.068122909,1.367003108,P192P193,2.87,ZEBI,Father,A,normal,20,3,11.7,5/16/21,20,L,1.49,x,-0.942,0.161,0.000420001,NA,Good,N,N,Inverted,0.266764706,0.184,0.290352941,0.066764706,-0.016,0.090352941,0.015,0.000200933,Y,0.170912951
A3,NCM,1,A,1,A3_NCM_TRIAL1_A,A3,2.933333333,11.48418491,1.667618776,2.860008355,2.292912099,LP80,1.37,BEFI,Unfamiliar,A,normal,20,3,11.7,5/16/21,15,L,1,x,0.3605,-0.0821,0.000360008,NA,Good,N,N,,0.409071429,0.312142857,0.401428571,0.209071429,0.112142857,0.201428571,0.165,0.000724715,Y,0.227739251
A3,NCM,1,A,2,A3_NCM_TRIAL1_A,A3,2.6,12.97979798,2.292846017,3.505335352,2.886248982,LP74,1.32,ZEBI,Unfamiliar,A,normal,20,3,11.7,5/16/21,15,L,1,x,0.3605,-0.0821,0.000360008,NA,Good,N,N,,0.4735,0.241,0.427857143,0.2735,0.041,0.227857143,0.025,0.000722919,Y,0.227739251
A3,NCM,1,A,3,A3_NCM_TRIAL1_A,A3,2,1.960784314,1.812653934,1.034899339,-0.019057524,WN,1.7,WN,WN,A,normal,20,3,11.7,5/16/21,15,L,1,x,0.3605,-0.0821,0.000360008,NA,Good,N,N,,0.312142857,0.882285714,0.375071429,0.112142857,0.682285714,0.175071429,0.055,1,N,0.227739251
A3,NCM,1,A,4,A3_NCM_TRIAL1_A,A3,2.4,14.67661691,2.131397932,2.670925007,4.171897921,BR90,1.34,BEFI,Unfamiliar,A,normal,20,3,11.7,5/16/21,15,L,1,x,0.3605,-0.0821,0.000360008,NA,Good,N,N,,0.495357143,0.327571429,0.415857143,0.295357143,0.127571429,0.215857143,0.025,0.000724715,Y,0.227739251
A3,NCM,1,A,5,A3_NCM_TRIAL1_A,A3,2.2,11.61440186,2.210365193,2.294920495,2.666839901,P192P193,2.87,ZEBI,Father,A,normal,20,3,11.7,5/16/21,15,L,1,x,0.3605,-0.0821,0.000360008,NA,Good,N,N,,0.4115,0.344285714,0.362071429,0.2115,0.144285714,0.162071429,0.01,6.10E-05,Y,0.227739251
A3,NCM,2,A,1,A3_NCM_TRIAL2_A,A3,0.272727273,14.66489715,0.646669791,7.258679443,2.055007988,LP80,1.37,BEFI,Unfamiliar,A,normal,20,3,11.7,5/16/21,15,L,1.1,x,0.637,-0.392,0.000180003,NA,Good,N,N,"Only 1st half of trial are these measurements (second half peak, trough , p2p = 0.4866V, -0.193V, 0.000179996s)",0.756428571,0.297428571,0.784428571,0.556428571,0.097428571,0.584428571,0.075,0.0038398,Y,0.615384615
A3,NCM,2,A,2,A3_NCM_TRIAL2_A,A3,2.25,16.28787879,2.41679728,10.64779275,1.335714732,LP74,1.32,ZEBI,Unfamiliar,A,normal,20,3,11.7,5/16/21,15,L,1.1,x,0.637,-0.392,0.000180003,NA,Good,N,N,"Only 1st half of trial are these measurements (second half peak, trough , p2p = 0.4866V, -0.193V, 0.000179996s)",0.641,0.240857143,0.591142857,0.441,0.040857143,0.391142857,0.13,0.000488281,Y,0.615384615
A3,NCM,2,A,3,A3_NCM_TRIAL2_A,A3,2.181818182,2.94117647,2.400757456,3.101512076,0.496673544,WN,1.7,WN,WN,A,normal,20,3,11.7,5/16/21,15,L,1.1,x,0.637,-0.392,0.000180003,NA,Good,N,N,"Only 1st half of trial are these measurements (second half peak, trough , p2p = 0.4866V, -0.193V, 0.000179996s)",0.297142857,0.724714286,0.376,0.097142857,0.524714286,0.176,0.01,0.240234375,N,0.615384615
A3,NCM,2,A,4,A3_NCM_TRIAL2_A,A3,0.916666667,16.41791045,0.900336637,11.40684186,1.489216261,BR90,1.34,BEFI,Unfamiliar,A,normal,20,3,11.7,5/16/21,15,L,1.1,x,0.637,-0.392,0.000180003,NA,Good,N,N,"Only 1st half of trial are these measurements (second half peak, trough , p2p = 0.4866V, -0.193V, 0.000179996s)",0.631857143,0.263714286,0.596428571,0.431857143,0.063714286,0.396428571,0.38,0.002516497,Y,0.615384615
A3,NCM,2,A,5,A3_NCM_TRIAL2_A,A3,0.75,10.19163763,1.035098339,4.591415169,1.980879181,P192P193,2.87,ZEBI,Father,A,normal,20,3,11.7,5/16/21,15,L,1.1,x,0.637,-0.392,0.000180003,NA,Good,N,N,"Only 1st half of trial are these measurements (second half peak, trough , p2p = 0.4866V, -0.193V, 0.000179996s)",0.443285714,0.265285714,0.468714286,0.243285714,0.065285714,0.268714286,0.01,0.014147404,Y,0.615384615
A3,NCM,3,A,1,A3_NCM_TRIAL3_A,A3,5.8,17.26277372,2.307881234,3.964695253,2.612251897,LP80,1.37,BEFI,Unfamiliar,A,normal,20,3,11.7,5/16/21,20,L,1.2,x,0.3667,-0.0511,0.000420005,NA,Good,N,N,,0.811315789,0.510631579,0.782789474,0.611315789,0.310631579,0.582789474,0.055,9.56E-05,Y,0.139350968
A3,NCM,3,A,2,A3_NCM_TRIAL3_A,A3,5.35,18.56060606,2.888725816,6.857938318,2.399210446,LP74,1.32,ZEBI,Unfamiliar,A,normal,20,3,11.7,5/16/21,20,L,1.2,x,0.3667,-0.0511,0.000420005,NA,Good,N,N,,0.534736842,0.300526316,0.489894737,0.334736842,0.100526316,0.289894737,0.025,1.91E-06,Y,0.139350968
A3,NCM,3,A,3,A3_NCM_TRIAL3_A,A3,5.25,7.205882353,3.058637468,2.849180439,0.678173786,WN,1.7,WN,WN,A,normal,20,3,11.7,5/16/21,20,L,1.2,x,0.3667,-0.0511,0.000420005,NA,Good,N,N,,0.397947368,0.792947368,0.472473684,0.197947368,0.592947368,0.272473684,0.04,0.016871369,Y,0.139350968
A3,NCM,3,A,4,A3_NCM_TRIAL3_A,A3,6.35,21.04477612,2.433861995,5.686506342,2.604937129,BR90,1.34,BEFI,Unfamiliar,A,normal,20,3,11.7,5/16/21,20,L,1.2,x,0.3667,-0.0511,0.000420005,NA,Good,N,N,,0.667052632,0.367526316,0.613578947,0.467052632,0.167526316,0.413578947,0.025,9.52E-05,Y,0.139350968
A3,NCM,3,A,5,A3_NCM_TRIAL3_A,A3,5.1,14.28571429,2.174009151,3.136907143,3.167492873,P192P193,2.87,ZEBI,Father,A,normal,20,3,11.7,5/16/21,20,L,1.2,x,0.3667,-0.0511,0.000420005,NA,Good,N,N,,0.528578947,0.344947368,0.526473684,0.328578947,0.144947368,0.326473684,0.03,9.56E-05,Y,0.139350968
A3,NCM,4,A,1,A3_NCM_TRIAL4_A,A3,0.9,1.277372263,0.718184846,1.107622224,0.320479189,LP80,1.37,BEFI,Unfamiliar,A,normal,20,3,11.7,5/16/21,20,L,1.3,x,0.3437,-0.0586,0.00024,NA,Good,N,N,,0.343470588,0.294411765,0.274352941,0.143470588,0.094411765,0.074352941,0.015,0.222194712,N,0.170497527
A3,NCM,4,A,2,A3_NCM_TRIAL4_A,A3,1.15,2.651515152,1.348488433,1.112861701,0.821268691,LP74,1.32,ZEBI,Unfamiliar,A,normal,20,3,11.7,5/16/21,20,L,1.3,x,0.3437,-0.0586,0.00024,NA,Good,N,N,,0.284058824,0.214764706,0.382647059,0.084058824,0.014764706,0.182647059,0.045,0.002970298,Y,0.170497527
A3,NCM,4,A,3,A3_NCM_TRIAL4_A,A3,0.6,1.529411765,0.680557047,0.840601462,0.793661376,WN,1.7,WN,WN,A,normal,20,3,11.7,5/16/21,20,L,1.3,x,0.3437,-0.0586,0.00024,NA,Good,N,N,,0.168588235,0.257529412,0.269176471,-0.031411765,0.057529412,0.069176471,0.09,0.00527004,Y,0.170497527
A3,NCM,4,A,4,A3_NCM_TRIAL4_A,A3,0.666666667,2.985074627,0.766964989,1.470424427,1.48971621,BR90,1.34,BEFI,Unfamiliar,A,normal,20,3,11.7,5/16/21,20,L,1.3,x,0.3437,-0.0586,0.00024,NA,Good,N,N,,0.255529412,0.244941176,0.285764706,0.055529412,0.044941176,0.085764706,0.025,0.000411483,Y,0.170497527
A3,NCM,4,A,5,A3_NCM_TRIAL4_A,A3,1,2.822299651,1.213953957,0.77418138,1.377794161,P192P193,2.87,ZEBI,Father,A,normal,20,3,11.7,5/16/21,20,L,1.3,x,0.3437,-0.0586,0.00024,NA,Good,N,N,,0.258411765,0.276235294,0.296294118,0.058411765,0.076235294,0.096294118,0.04,0.00041687,Y,0.170497527
A4,FL,1,A,1,A4_FL_TRIAL1_A,A4,1.210526316,4.109589041,1.618605276,2.633005158,1.502571875,LP75,1.46,ZEBI,Unfamiliar,A,normal,21,4,12,5/17/21,20,R,1.1,x,-1.23,0.093,0.000180029,NA,Bad,Y,N,Inverted with double depolarization peak; Loose spot a bit after 45 presentations,0.412705882,0.218058824,0.393941176,0.212705882,0.018058824,0.193941176,0.125,0.000165074,Y,0.075609756
A4,FL,1,A,2,A4_FL_TRIAL1_A,A4,1.263157895,2.717391304,1.557851272,1.78421337,1.357040904,DB10,1.84,BEFI,Unfamiliar,A,normal,21,4,12,5/17/21,20,R,1.1,x,-1.23,0.093,0.000180029,NA,Bad,Y,N,Inverted with double depolarization peak; Loose spot a bit after 45 presentations,0.256647059,0.282058824,0.280352941,0.056647059,0.082058824,0.080352941,0.025,0.000666805,Y,0.075609756
A4,FL,1,A,3,A4_FL_TRIAL1_A,A4,1.333333333,2.352941176,1.714985851,1.838148787,0.992503779,WN,1.7,WN,WN,A,normal,21,4,12,5/17/21,20,R,1.1,x,-1.23,0.093,0.000180029,NA,Bad,Y,N,Inverted with double depolarization peak; Loose spot a bit after 45 presentations,0.356941176,0.354764706,0.372176471,0.156941176,0.154764706,0.172176471,0.01,0.004022779,Y,0.075609756
A4,FL,1,A,4,A4_FL_TRIAL1_A,A4,0.789473684,4.416820947,0.917662935,3.944639855,1.061481357,PU81,1.99,BEFI,Unfamiliar,A,normal,21,4,12,5/17/21,20,R,1.1,x,-1.23,0.093,0.000180029,NA,Bad,Y,N,Inverted with double depolarization peak; Loose spot a bit after 45 presentations,0.262352941,0.244,0.251941176,0.062352941,0.044,0.051941176,0.01,0.000195575,Y,0.075609756
A4,FL,1,A,5,A4_FL_TRIAL1_A,A4,1.444444444,3.929539295,1.652884189,3.10914229,0.995939962,P192P193,2.87,ZEBI,Father,A,normal,21,4,12,5/17/21,20,R,1.1,x,-1.23,0.093,0.000180029,NA,Bad,Y,N,Inverted with double depolarization peak; Loose spot a bit after 45 presentations,0.464764706,0.309941176,0.475176471,0.264764706,0.109941176,0.275176471,0.195,0.000253105,Y,0.075609756
A4,FL,3,A,1,A4_FL_TRIAL3_A,A4,2.473684211,8.976207643,2.03765718,3.521423892,2.431178163,LP75,1.46,ZEBI,Unfamiliar,A,normal,21,4,12,5/17/21,20,R,1.25,x,-1.133,0.355,0.000240001,NA,Good,N,N,Inverted,0.4212,0.220733333,0.4056,0.2212,0.020733333,0.2056,0.115,0.000142576,Y,0.313327449
A4,FL,3,A,2,A4_FL_TRIAL3_A,A4,2.95,6.929347826,2.235479461,2.730944463,1.907364295,DB10,1.84,BEFI,Unfamiliar,A,normal,21,4,12,5/17/21,20,R,1.25,x,-1.133,0.355,0.000240001,NA,Good,N,N,Inverted,0.336,0.170466667,0.3336,0.136,-0.029533333,0.1336,0.015,9.56E-05,Y,0.313327449
A4,FL,3,A,3,A4_FL_TRIAL3_A,A4,2.3125,7.5,1.815443013,3.182275016,1.675673887,WN,1.7,WN,WN,A,normal,21,4,12,5/17/21,20,R,1.25,x,-1.133,0.355,0.000240001,NA,Good,N,N,Inverted,0.243266667,0.3188,0.243466667,0.043266667,0.1188,0.043466667,0.01,0.000583419,Y,0.313327449
A4,FL,3,A,4,A4_FL_TRIAL3_A,A4,2.764705882,7.212533255,2.016476251,2.153642865,1.891703204,PU81,1.99,BEFI,Unfamiliar,A,normal,21,4,12,5/17/21,20,R,1.25,x,-1.133,0.355,0.000240001,NA,Good,N,N,Inverted,0.330666667,0.312666667,0.337533333,0.130666667,0.112666667,0.137533333,0.02,0.000319187,Y,0.313327449
A4,FL,3,A,5,A4_FL_TRIAL3_A,A4,2.444444444,8.555942703,2.092626332,2.913285754,1.797899088,P192P193,2.87,ZEBI,Father,A,normal,21,4,12,5/17/21,20,R,1.25,x,-1.133,0.355,0.000240001,NA,Good,N,N,Inverted,0.327466667,0.2654,0.326733333,0.127466667,0.0654,0.126733333,0.015,0.000253534,Y,0.313327449
A4,FL,3,B,1,A4_FL_TRIAL3_B,A4,0.736842105,4.001441961,0.87191394,2.751716133,1.389706171,LP75,1.46,ZEBI,Unfamiliar,A,normal,21,4,12,5/17/21,20,R,1.25,x,1.014,-0.09,0.001259997,NA,Bad,N,N,Shape is weird,0.308333333,0.192,0.324133333,0.108333333,-0.008,0.124133333,0.1,0.000142133,Y,0.088757396
A4,FL,3,B,2,A4_FL_TRIAL3_B,A4,0.9,3.831521739,1.483239697,3.01037799,0.873404853,DB10,1.84,BEFI,Unfamiliar,A,normal,21,4,12,5/17/21,20,R,1.25,x,1.014,-0.09,0.001259997,NA,Bad,N,N,Shape is weird,0.3034,0.216266667,0.297,0.1034,0.016266667,0.097,0.04,0.001076452,Y,0.088757396
A4,FL,3,B,3,A4_FL_TRIAL3_B,A4,1.1875,3.198529412,1.515200757,1.677158442,0.759555941,WN,1.7,WN,WN,A,normal,21,4,12,5/17/21,20,R,1.25,x,1.014,-0.09,0.001259997,NA,Bad,N,N,Shape is weird,0.203666667,0.221066667,0.202266667,0.003666667,0.021066667,0.002266667,0.01,0.01204531,Y,0.088757396
A4,FL,3,B,4,A4_FL_TRIAL3_B,A4,1,3.133313627,0.935414347,2.278891784,1.010708106,PU81,1.99,BEFI,Unfamiliar,A,normal,21,4,12,5/17/21,20,R,1.25,x,1.014,-0.09,0.001259997,NA,Bad,N,N,Shape is weird,0.219266667,0.305933333,0.262533333,0.019266667,0.105933333,0.062533333,0.05,0.000916232,Y,0.088757396
A4,FL,3,B,5,A4_FL_TRIAL3_B,A4,1.333333333,3.832752613,1.782265577,1.992650068,1.084110379,P192P193,2.87,ZEBI,Father,A,normal,21,4,12,5/17/21,20,R,1.25,x,1.014,-0.09,0.001259997,NA,Bad,N,N,Shape is weird,0.367933333,0.224666667,0.339133333,0.167933333,0.024666667,0.139133333,0.01,0.002637408,Y,0.088757396
A4,FL,4,A,1,A4_FL_TRIAL4_A,A4,3,9.760273973,1.414213562,3.619691059,2.050823666,LP75,1.46,ZEBI,Unfamiliar,A,normal,21,4,12,5/17/21,20,R,1.3,ok,-1.324,0.406,0.00024,NA,Bad,N,N,Inverted; lost spot after 460s,0.342833333,0.1835,0.391333333,0.142833333,-0.0165,0.191333333,0.1,0.0078125,Y,0.306646526
A4,FL,4,A,2,A4_FL_TRIAL4_A,A4,1.857142857,6.98757764,1.67616342,1.30994314,1.966938942,DB10,1.84,BEFI,Unfamiliar,A,normal,21,4,12,5/17/21,20,R,1.3,ok,-1.324,0.406,0.00024,NA,Bad,N,N,Inverted; lost spot after 460s,0.189,0.220666667,0.249666667,-0.011,0.020666667,0.049666667,0.225,0.022254125,Y,0.306646526
A4,FL,4,A,3,A4_FL_TRIAL4_A,A4,3.75,9.485294117,2.251983253,2.444388896,3.108045471,WN,1.7,WN,WN,A,normal,21,4,12,5/17/21,20,R,1.3,ok,-1.324,0.406,0.00024,NA,Bad,N,N,Inverted; lost spot after 460s,0.257666667,0.294333333,0.234833333,0.057666667,0.094333333,0.034833333,0.055,0.0078125,Y,0.306646526
A4,FL,4,A,4,A4_FL_TRIAL4_A,A4,2.375,7.03517588,1.597989809,1.074417053,2.646428372,PU81,1.99,BEFI,Unfamiliar,A,normal,21,4,12,5/17/21,20,R,1.3,ok,-1.324,0.406,0.00024,NA,Bad,N,N,Inverted; lost spot after 460s,0.277666667,0.3015,0.304,0.077666667,0.1015,0.104,0.11,0.0078125,Y,0.306646526
A4,FL,4,A,5,A4_FL_TRIAL4_A,A4,2.375,9.625435541,1.187734939,1.512343067,3.863468535,P192P193,2.87,ZEBI,Father,A,normal,21,4,12,5/17/21,20,R,1.3,ok,-1.324,0.406,0.00024,NA,Bad,N,N,Inverted; lost spot after 460s,0.500666667,0.177,0.431833333,0.300666667,-0.023,0.231833333,0.03,0.0078125,Y,0.306646526
A4,FL,5,A,1,A4_FL_TRIAL5_A,A4,2.166666667,5.422374429,1.696699113,2.416456381,1.025052458,LP75,1.46,ZEBI,Unfamiliar,A,normal,21,4,12,5/17/21,20,R,1.35,ok,-1.028,0.5,0.00018,NA,Bad,N,N,Inverted; Lost spot after 640s,0.342285714,0.214,0.258714286,0.142285714,0.014,0.058714286,0.045,0.013435416,Y,0.486381323
A4,FL,5,A,2,A4_FL_TRIAL5_A,A4,2.909090909,5.286561265,1.375103302,1.538934469,1.17142902,DB10,1.84,BEFI,Unfamiliar,A,normal,21,4,12,5/17/21,20,R,1.35,ok,-1.028,0.5,0.00018,NA,Bad,N,N,Inverted; Lost spot after 640s,0.211857143,0.172714286,0.18,0.011857143,-0.027285714,-0.02,0.15,0.002929688,Y,0.486381323
A4,FL,5,A,3,A4_FL_TRIAL5_A,A4,1.375,4.926470588,1.685018016,2.413864632,1.302407326,WN,1.7,WN,WN,A,normal,21,4,12,5/17/21,20,R,1.35,ok,-1.028,0.5,0.00018,NA,Bad,N,N,Inverted; Lost spot after 640s,0.203285714,0.469285714,0.364857143,0.003285714,0.269285714,0.164857143,0.06,0.0234375,Y,0.486381323
A4,FL,5,A,4,A4_FL_TRIAL5_A,A4,2.2,4.824120603,1.932183566,1.868253734,1.473020282,PU81,1.99,BEFI,Unfamiliar,A,normal,21,4,12,5/17/21,20,R,1.35,ok,-1.028,0.5,0.00018,NA,Bad,N,N,Inverted; Lost spot after 640s,0.179,0.162428571,0.196714286,-0.021,-0.037571429,-0.003285714,0.165,0.005859375,Y,0.486381323
A4,FL,5,A,5,A4_FL_TRIAL5_A,A4,3.545454545,4.371238518,1.752919642,1.316350634,0.410882783,P192P193,2.87,ZEBI,Father,A,normal,21,4,12,5/17/21,20,R,1.35,ok,-1.028,0.5,0.00018,NA,Bad,N,N,Inverted; Lost spot after 640s,0.201714286,0.193428571,0.147,0.001714286,-0.006571429,-0.053,0.095,0.206054688,N,0.486381323
A4,NCM,1,A,1,A4_NCM_TRIAL1_A,A4,0.789473684,4.866618601,1.031662486,2.115968344,1.825248462,LP75,1.46,ZEBI,Unfamiliar,A,normal,21,4,12,5/17/21,20,R,1.06,x,0.6942,0.0843,0.000240001,NA,Bad,N,N,Weird double peak,0.475705882,0.258,0.408411765,0.275705882,0.058,0.208411765,0.355,0.000196748,Y,0.121434745
A4,NCM,1,A,2,A4_NCM_TRIAL1_A,A4,0.947368421,3.97597254,1.129094239,1.281664574,2.86886587,DB10,1.84,BEFI,Unfamiliar,A,normal,21,4,12,5/17/21,20,R,1.06,x,0.6942,0.0843,0.000240001,NA,Bad,N,N,Weird double peak,0.350705882,0.226764706,0.379352941,0.150705882,0.026764706,0.179352941,0.02,0.00014103,Y,0.121434745
A4,NCM,1,A,3,A4_NCM_TRIAL1_A,A4,0.944444444,1.830065359,0.998364676,1.121354058,0.628932837,WN,1.7,WN,WN,A,normal,21,4,12,5/17/21,20,R,1.06,x,0.6942,0.0843,0.000240001,NA,Bad,N,N,Weird double peak,0.161529412,0.462882353,0.250588235,-0.038470588,0.262882353,0.050588235,0.01,0.026239441,Y,0.121434745
A4,NCM,1,A,4,A4_NCM_TRIAL1_A,A4,0.526315789,4.998677599,0.841191024,1.712099987,2.697934165,PU81,1.99,BEFI,Unfamiliar,A,normal,21,4,12,5/17/21,20,R,1.06,x,0.6942,0.0843,0.000240001,NA,Bad,N,N,Weird double peak,0.406470588,0.210588235,0.398647059,0.206470588,0.010588235,0.198647059,0.085,0.00014059,Y,0.121434745
A4,NCM,1,A,5,A4_NCM_TRIAL1_A,A4,0.555555556,3.484320557,0.704792186,0.810564457,2.659629457,P192P193,2.87,ZEBI,Father,A,normal,21,4,12,5/17/21,20,R,1.06,x,0.6942,0.0843,0.000240001,NA,Bad,N,N,Weird double peak,0.348411765,0.219235294,0.376705882,0.148411765,0.019235294,0.176705882,0.2,0.000212246,Y,0.121434745
A4,NCM,1,B,1,A4_NCM_TRIAL1_B,A4,0.947368421,3.604902668,1.223550581,1.511720804,1.546111046,LP75,1.46,ZEBI,Unfamiliar,A,normal,21,4,12,5/17/21,20,R,1.06,x,-0.832,0.002,0.001,NA,Bad,N,N,"Inverted, horrible shape",0.610705882,0.317588235,0.630176471,0.410705882,0.117588235,0.430176471,0.225,0.00031308,Y,0.002403846
A4,NCM,1,B,2,A4_NCM_TRIAL1_B,A4,1.157894737,5.463386728,1.25888654,2.258860272,1.598951591,DB10,1.84,BEFI,Unfamiliar,A,normal,21,4,12,5/17/21,20,R,1.06,x,-0.832,0.002,0.001,NA,Bad,N,N,"Inverted, horrible shape",0.684529412,0.338764706,0.648823529,0.484529412,0.138764706,0.448823529,0.095,0.000270227,Y,0.002403846
A4,NCM,1,B,3,A4_NCM_TRIAL1_B,A4,0.611111111,0.784313725,0.777544316,0.924594409,0.132788714,WN,1.7,WN,WN,A,normal,21,4,12,5/17/21,20,R,1.06,x,-0.832,0.002,0.001,NA,Bad,N,N,"Inverted, horrible shape",0.150941176,0.770588235,0.532882353,-0.049058824,0.570588235,0.332882353,0.01,0.7055266,N,0.002403846
A4,NCM,1,B,4,A4_NCM_TRIAL1_B,A4,1.157894737,5.210261836,1.893355572,3.057630664,1.269270923,PU81,1.99,BEFI,Unfamiliar,A,normal,21,4,12,5/17/21,20,R,1.06,x,-0.832,0.002,0.001,NA,Bad,N,N,"Inverted, horrible shape",0.509117647,0.250235294,0.481764706,0.309117647,0.050235294,0.281764706,0.06,0.00036631,Y,0.002403846
A4,NCM,1,B,5,A4_NCM_TRIAL1_B,A4,1.166666667,4.142469996,1.200490096,1.398275472,2.145786628,P192P193,2.87,ZEBI,Father,A,normal,21,4,12,5/17/21,20,R,1.06,x,-0.832,0.002,0.001,NA,Bad,N,N,"Inverted, horrible shape",0.554470588,0.287823529,0.544411765,0.354470588,0.087823529,0.344411765,0.255,0.000213352,Y,0.002403846
A4,NCM,3,A,1,A4_NCM_TRIAL3_A,A4,1.421052632,6.849315069,1.502434671,2.777517138,1.759016437,LP75,1.46,ZEBI,Unfamiliar,A,normal,21,4,12,5/17/21,20,R,1.25,x,0.5946,-0.0333,0.00042,NA,Good,N,N,,0.5144,0.2032,0.473466667,0.3144,0.0032,0.273466667,0.06,0.000142133,Y,0.056004036
A4,NCM,3,A,2,A4_NCM_TRIAL3_A,A4,1.1,6.630434783,1.209610638,1.492027698,2.99344756,DB10,1.84,BEFI,Unfamiliar,A,normal,21,4,12,5/17/21,20,R,1.25,x,0.5946,-0.0333,0.00042,NA,Good,N,N,,0.524066667,0.519866667,0.437866667,0.324066667,0.319866667,0.237866667,0.07,9.49E-05,Y,0.056004036
A4,NCM,3,A,3,A4_NCM_TRIAL3_A,A4,1.3125,2.058823529,0.704154339,1.052267284,0.748910951,WN,1.7,WN,WN,A,normal,21,4,12,5/17/21,20,R,1.25,x,0.5946,-0.0333,0.00042,NA,Good,N,N,,0.144866667,0.6516,0.300533333,-0.055133333,0.4516,0.100533333,0.025,0.027871299,Y,0.056004036
A4,NCM,3,A,4,A4_NCM_TRIAL3_A,A4,0.705882353,6.91693763,0.985184366,2.045304931,2.996473846,PU81,1.99,BEFI,Unfamiliar,A,normal,21,4,12,5/17/21,20,R,1.25,x,0.5946,-0.0333,0.00042,NA,Good,N,N,,0.424133333,0.2806,0.3756,0.224133333,0.0806,0.1756,0.055,0.000320427,Y,0.056004036
A4,NCM,3,A,5,A4_NCM_TRIAL3_A,A4,0.666666667,4.819976771,0.594088526,1.813462001,2.339259679,P192P193,2.87,ZEBI,Father,A,normal,21,4,12,5/17/21,20,R,1.25,x,0.5946,-0.0333,0.00042,NA,Good,N,N,,0.48,0.2982,0.472533333,0.28,0.0982,0.272533333,0.24,0.000211511,Y,0.056004036
A4,NCM,4,A,1,A4_NCM_TRIAL4_A,A4,1.117647059,8.25946817,1.409004655,4.190629236,1.986332567,LP75,1.46,ZEBI,Unfamiliar,A,normal,21,4,12,5/17/21,20,R,1.35,x,0.588,-0.183,0.0004199,NA,Good,Y,N,,0.4475,0.2705,0.406642857,0.2475,0.0705,0.206642857,0.205,0.000320427,Y,0.31122449
A4,NCM,4,A,2,A4_NCM_TRIAL4_A,A4,1.0625,6.861413044,1.181453907,3.407771938,2.259139373,DB10,1.84,BEFI,Unfamiliar,A,normal,21,4,12,5/17/21,20,R,1.35,x,0.588,-0.183,0.0004199,NA,Good,Y,N,,0.390142857,0.352428571,0.396642857,0.190142857,0.152428571,0.196642857,0.01,0.000481351,Y,0.31122449
A4,NCM,4,A,3,A4_NCM_TRIAL4_A,A4,0.611111111,1.862745098,0.916443823,1.691082441,0.75873127,WN,1.7,WN,WN,A,normal,21,4,12,5/17/21,20,R,1.35,x,0.588,-0.183,0.0004199,NA,Good,Y,N,,0.410928571,0.757428571,0.521571429,0.210928571,0.557428571,0.321571429,0.1,0.005468626,Y,0.31122449
A4,NCM,4,A,4,A4_NCM_TRIAL4_A,A4,1.058823529,9.813774756,1.144038255,4.602579083,2.247626573,PU81,1.99,BEFI,Unfamiliar,A,normal,21,4,12,5/17/21,20,R,1.35,x,0.588,-0.183,0.0004199,NA,Good,Y,N,,0.461285714,0.281714286,0.460571429,0.261285714,0.081714286,0.260571429,0.01,0.000319807,Y,0.31122449
A4,NCM,4,A,5,A4_NCM_TRIAL4_A,A4,1,7.131242741,1.069044968,4.080135051,1.790474998,P192P193,2.87,ZEBI,Father,A,normal,21,4,12,5/17/21,20,R,1.35,x,0.588,-0.183,0.0004199,NA,Good,Y,N,,0.565,0.337857143,0.619571429,0.365,0.137857143,0.419571429,0.185,0.000722919,Y,0.31122449
A4,NCM,5,A,1,A4_NCM_TRIAL5_A,A4,0.611111111,6.697108067,0.916443823,2.458979364,2.739042561,LP75,1.46,ZEBI,Unfamiliar,A,normal,21,4,12,5/17/21,20,R,1.45,x,0.531,-0.213,0.00036,NA,Good,N,N,,0.577454545,0.236636364,0.602363636,0.377454545,0.036636364,0.402363636,0.045,0.000210047,Y,0.401129944
A4,NCM,5,A,2,A4_NCM_TRIAL5_A,A4,0.823529412,5.722506394,1.074435556,2.25000695,2.107467968,DB10,1.84,BEFI,Unfamiliar,A,normal,21,4,12,5/17/21,20,R,1.45,x,0.531,-0.213,0.00036,NA,Good,N,N,,0.337272727,0.185272727,0.321727273,0.137272727,-0.014727273,0.121727273,0.07,0.000319807,Y,0.401129944
A4,NCM,5,A,3,A4_NCM_TRIAL5_A,A4,0.583333333,1.81372549,0.668557923,1.833907562,0.816345618,WN,1.7,WN,WN,A,normal,21,4,12,5/17/21,20,R,1.45,x,0.531,-0.213,0.00036,NA,Good,N,N,,0.210090909,0.719454545,0.387272727,0.010090909,0.519454545,0.187272727,0.04,0.023239747,Y,0.401129944
A4,NCM,5,A,4,A4_NCM_TRIAL5_A,A4,0.294117647,6.384865504,0.469668218,3.152063404,2.013293724,PU81,1.99,BEFI,Unfamiliar,A,normal,21,4,12,5/17/21,20,R,1.45,x,0.531,-0.213,0.00036,NA,Good,N,N,,0.441,0.276363636,0.423818182,0.241,0.076363636,0.223818182,0.01,0.000319187,Y,0.401129944
A4,NCM,5,A,5,A4_NCM_TRIAL5_A,A4,1.4375,4.856271777,0.963932916,2.183268144,1.801705649,P192P193,2.87,ZEBI,Father,A,normal,21,4,12,5/17/21,20,R,1.45,x,0.531,-0.213,0.00036,NA,Good,N,N,,0.599909091,0.302363636,0.508818182,0.399909091,0.102363636,0.308818182,0.23,0.000582181,Y,0.401129944
A5,FL,1,A,1,A5_FL_TRIAL1_A,A5,1.95,3.214285714,1.791059669,1.772507554,0.629028021,YE77,1.4,BEFI,Unfamiliar,A,normal,20,2,10.6,5/19/21,20,R,1.25,x,-0.8269,0.295,0.000599999,NA,Good,N,N,Inverted,0.149,0.367,0.179625,-0.051,0.167,-0.020375,0.125,0.014456483,Y,0.356754142
A5,FL,1,A,2,A5_FL_TRIAL1_A,A5,2.166666667,5.150040551,1.917412472,2.175021423,1.081405404,LP80,1.37,BEFI,Unfamiliar,A,normal,20,2,10.6,5/19/21,20,R,1.25,x,-0.8269,0.295,0.000599999,NA,Good,N,N,Inverted,0.2765,0.27125,0.3,0.0765,0.07125,0.1,0.08,0.003508653,Y,0.356754142
A5,FL,1,A,3,A5_FL_TRIAL1_A,A5,2.176470588,5.298289528,1.91165158,2.713607701,1.079222689,LP85,1.41,ZEBI,Unfamiliar,A,normal,20,2,10.6,5/19/21,20,R,1.25,x,-0.8269,0.295,0.000599999,NA,Good,N,N,Inverted,0.34575,0.19675,0.315625,0.14575,-0.00325,0.115625,0.145,0.003331461,Y,0.356754142
A5,FL,1,A,4,A5_FL_TRIAL1_A,A5,2.222222222,4.31372549,2.166666667,1.883271835,0.71937454,WN,1.7,WN,WN,A,normal,20,2,10.6,5/19/21,20,R,1.25,x,-0.8269,0.295,0.000599999,NA,Good,N,N,Inverted,0.3105,0.2855,0.26975,0.1105,0.0855,0.06975,0.05,0.07421875,N,0.356754142
A5,FL,1,A,5,A5_FL_TRIAL1_A,A5,2.066666667,4.343786295,1.387014608,1.979224939,1.351976205,P192P193,2.87,ZEBI,Father,A,normal,20,2,10.6,5/19/21,20,R,1.25,x,-0.8269,0.295,0.000599999,NA,Good,N,N,Inverted,0.29575,0.321875,0.349625,0.09575,0.121875,0.149625,0.385,0.000427246,Y,0.356754142
A5,FL,1,B,1,A5_FL_TRIAL1_B,A5,1.5,4.321428571,1.762175689,2.311357564,1.264294309,YE77,1.4,BEFI,Unfamiliar,A,normal,20,2,10.6,5/19/21,20,R,1.25,x,0.759,0,0.001320188,NA,Bad,N,N,Shape is weird,0.646125,0.4755,0.691625,0.446125,0.2755,0.491625,0.08,0.000417355,Y,0
A5,FL,1,B,2,A5_FL_TRIAL1_B,A5,0.888888889,4.785077048,1.936913521,2.127675504,1.844879046,LP80,1.37,BEFI,Unfamiliar,A,normal,20,2,10.6,5/19/21,20,R,1.25,x,0.759,0,0.001320188,NA,Bad,N,N,Shape is weird,0.312875,0.170125,0.241375,0.112875,-0.029875,0.041375,0.11,0.000212246,Y,0
A5,FL,1,B,3,A5_FL_TRIAL1_B,A5,1,6.049228202,1.322875656,2.230347713,2.517095924,LP85,1.41,ZEBI,Unfamiliar,A,normal,20,2,10.6,5/19/21,20,R,1.25,x,0.759,0,0.001320188,NA,Bad,N,N,Shape is weird,0.382,0.181,0.34675,0.182,-0.019,0.14675,0.135,0.000315487,Y,0
A5,FL,1,B,4,A5_FL_TRIAL1_B,A5,0.666666667,2.352941176,0.707106781,1.583872002,1.00391005,WN,1.7,WN,WN,A,normal,20,2,10.6,5/19/21,20,R,1.25,x,0.759,0,0.001320188,NA,Bad,N,N,Shape is weird,0.37275,0.545375,0.459,0.17275,0.345375,0.259,0.01,0.029973974,Y,0
A5,FL,1,B,5,A5_FL_TRIAL1_B,A5,2.733333333,4.947735192,4.113855798,1.758016444,0.722951629,P192P193,2.87,ZEBI,Father,A,normal,20,2,10.6,5/19/21,20,R,1.25,x,0.759,0,0.001320188,NA,Bad,N,N,Shape is weird,0.527375,0.2905,0.518375,0.327375,0.0905,0.318375,0.22,0.05698318,N,0
A5,FL,2,A,1,A5_FL_TRIAL2_A,A5,1,3.681318681,1,2.038034473,1.945226841,YE77,1.4,BEFI,Unfamiliar,A,normal,20,2,10.6,5/19/21,20,R,1.35,ok,-1.021,0.312,0.000539945,NA,Bad,N,N,Inverted,0.4295,0.13975,0.3675,0.2295,-0.06025,0.1675,0.1,0.001656248,Y,0.305582762
A5,FL,2,A,2,A5_FL_TRIAL2_A,A5,1.533333333,2.627737226,1.684664726,1.907411344,0.583228352,LP80,1.37,BEFI,Unfamiliar,A,normal,20,2,10.6,5/19/21,20,R,1.35,ok,-1.021,0.312,0.000539945,NA,Bad,N,N,Inverted,0.34525,0.192375,0.3385,0.14525,-0.007625,0.1385,0.04,0.05693311,N,0.305582762
A5,FL,2,A,3,A5_FL_TRIAL2_A,A5,1.153846154,2.345881069,0.987096234,1.458782538,0.682031608,LP85,1.41,ZEBI,Unfamiliar,A,normal,20,2,10.6,5/19/21,20,R,1.35,ok,-1.021,0.312,0.000539945,NA,Bad,N,N,Inverted,0.2525,0.191875,0.285125,0.0525,-0.008125,0.085125,0.195,0.050300934,N,0.305582762
A5,FL,2,A,4,A5_FL_TRIAL2_A,A5,1,1.633986928,0.866025404,1.168272087,0.557839889,WN,1.7,WN,WN,A,normal,20,2,10.6,5/19/21,20,R,1.35,ok,-1.021,0.312,0.000539945,NA,Bad,N,N,Inverted,0.122625,0.2825,0.208375,-0.077375,0.0825,0.008375,0.03,0.234901282,N,0.305582762
A5,FL,2,A,5,A5_FL_TRIAL2_A,A5,1.2,2.787456446,1.229272594,0.592220617,1.105282551,P192P193,2.87,ZEBI,Father,A,normal,20,2,10.6,5/19/21,20,R,1.35,ok,-1.021,0.312,0.000539945,NA,Bad,N,N,Inverted,0.2535,0.363,0.245625,0.0535,0.163,0.045625,0.205,0.018981154,Y,0.305582762
A5,NCM,1,A,1,A5_NCM_TRIAL1_A,A5,0.736842105,3.909774436,0.991189256,2.986823113,0.996087671,YE77,1.4,BEFI,Unfamiliar,A,normal,20,2,10.6,5/19/21,20,R,1.01,ok,0.3452,-0.107,0.000240002,NA,Good,N,N,,0.34275,0.14925,0.24,0.14275,-0.05075,0.04,0.17,0.001085253,Y,0.309965238
A5,NCM,1,A,2,A5_NCM_TRIAL1_A,A5,1.4375,4.47080292,1.504160896,2.650281771,1.046467395,LP80,1.37,BEFI,Unfamiliar,A,normal,20,2,10.6,5/19/21,20,R,1.01,ok,0.3452,-0.107,0.000240002,NA,Good,N,N,,0.3145,0.271125,0.33225,0.1145,0.071125,0.13225,0.055,0.001616993,Y,0.309965238
A5,NCM,1,A,3,A5_NCM_TRIAL1_A,A5,0.642857143,4.052684904,1.215739272,2.869811194,1.366132351,LP85,1.41,ZEBI,Unfamiliar,A,normal,20,2,10.6,5/19/21,20,R,1.01,ok,0.3452,-0.107,0.000240002,NA,Good,N,N,,0.343875,0.20375,0.297625,0.143875,0.00375,0.097625,0.02,0.001656248,Y,0.309965238
A5,NCM,1,A,4,A5_NCM_TRIAL1_A,A5,0.666666667,2.222222222,1,1.783667196,0.706755948,WN,1.7,WN,WN,A,normal,20,2,10.6,5/19/21,20,R,1.01,ok,0.3452,-0.107,0.000240002,NA,Good,N,N,,0.113125,0.333625,0.289875,-0.086875,0.133625,0.089875,0.06,0.057584115,N,0.309965238
A5,NCM,1,A,5,A5_NCM_TRIAL1_A,A5,0.857142857,3.086112494,1.027105182,1.557379116,1.493097711,P192P193,2.87,ZEBI,Father,A,normal,20,2,10.6,5/19/21,20,R,1.01,ok,0.3452,-0.107,0.000240002,NA,Good,N,N,,0.337125,0.285,0.340625,0.137125,0.085,0.140625,0.175,0.002087,Y,0.309965238
A5,NCM,2,A,1,A5_NCM_TRIAL2_A,A5,1,5.274725275,2.768874621,3.120843652,1.735431587,YE77,1.4,BEFI,Unfamiliar,A,normal,20,2,10.6,5/19/21,20,R,1.11,x,0.4146,-0.0409,0.001259986,NA,Good,N,N,,0.37425,0.256125,0.474625,0.17425,0.056125,0.274625,0.135,0.001634576,Y,0.098649301
A5,NCM,2,A,2,A5_NCM_TRIAL2_A,A5,0.6,3.99026764,0.632455532,2.65864494,1.301755236,LP80,1.37,BEFI,Unfamiliar,A,normal,20,2,10.6,5/19/21,20,R,1.11,x,0.4146,-0.0409,0.001259986,NA,Good,N,N,,0.635625,0.431875,0.63975,0.435625,0.231875,0.43975,0.055,0.000881237,Y,0.098649301
A5,NCM,2,A,3,A5_NCM_TRIAL2_A,A5,1.076923077,5.782869613,1.037749043,2.666989723,2.217253029,LP85,1.41,ZEBI,Unfamiliar,A,normal,20,2,10.6,5/19/21,20,R,1.11,x,0.4146,-0.0409,0.001259986,NA,Good,N,N,,0.659375,0.446,0.51725,0.459375,0.246,0.31725,0.095,0.001650813,Y,0.098649301
A5,NCM,2,A,4,A5_NCM_TRIAL2_A,A5,0.777777778,1.37254902,1.092906421,1.139112749,0.383029744,WN,1.7,WN,WN,A,normal,20,2,10.6,5/19/21,20,R,1.11,x,0.4146,-0.0409,0.001259986,NA,Good,N,N,,0.246625,0.488,0.32725,0.046625,0.288,0.12725,0.16,0.284624288,N,0.098649301
A5,NCM,2,A,5,A5_NCM_TRIAL2_A,A5,0.9,3.763066202,0.994428926,2.29248405,1.353581305,P192P193,2.87,ZEBI,Father,A,normal,20,2,10.6,5/19/21,20,R,1.11,x,0.4146,-0.0409,0.001259986,NA,Good,N,N,,0.1785,0.2695,0.154,-0.0215,0.0695,-0.046,0.05,0.001953125,Y,0.098649301
B3,NCM,1,A,1,B3_NCM_TRIAL1_A,B3,0.666666667,2.898550725,0.975900073,1.774992567,1.114465363,DB10,1.84,BEFI,Unfamiliar,B,BEFI,33,6,8.3,7/27/21,15,R,1.08,x,0.6563,-0.0358,0.00024,NA,Good,N,N,,0.352214286,0.205857143,0.290857143,0.152214286,0.005857143,0.090857143,0.03,0.004889127,Y,0.054548225
B3,NCM,1,A,2,B3_NCM_TRIAL1_A,B3,0.466666667,2.356589147,0.833809388,1.332663563,1.272855757,DB22P31,2.15,BEFI,Father,B,BEFI,33,6,8.3,7/27/21,15,R,1.08,x,0.6563,-0.0358,0.00024,NA,Good,N,N,,0.241285714,0.285642857,0.2895,0.041285714,0.085642857,0.0895,NA,0.001944918,Y,0.054548225
B3,NCM,1,A,3,B3_NCM_TRIAL1_A,B3,1,1.835075493,0.845154255,1.252602798,0.674288859,P192P193,2.87,ZEBI,Unfamiliar,B,BEFI,33,6,8.3,7/27/21,15,R,1.08,x,0.6563,-0.0358,0.00024,NA,Good,N,N,,0.175642857,0.252214286,0.236214286,-0.024357143,0.052214286,0.036214286,0.2,0.018066406,Y,0.054548225
B3,NCM,1,A,4,B3_NCM_TRIAL1_A,B3,1.2,4.019607843,1.082325539,2.020705557,1.535766443,APU170,1.36,ZEBI,Unfamiliar,B,BEFI,33,6,8.3,7/27/21,15,R,1.08,x,0.6563,-0.0358,0.00024,NA,Good,N,N,,0.394642857,0.304714286,0.328714286,0.194642857,0.104714286,0.128714286,0.025,0.000721126,Y,0.054548225
B3,NCM,1,A,5,B3_NCM_TRIAL1_A,B3,1.266666667,1.725490196,0.798808637,1.286199356,0.303515039,WN,1.7,WN,WN,B,BEFI,33,6,8.3,7/27/21,15,R,1.08,x,0.6563,-0.0358,0.00024,NA,Good,N,N,,0.132428571,0.228714286,0.202642857,-0.067571429,0.028714286,0.002642857,0.045,0.24391301,N,0.054548225
B4,FL,1,A,1,B4_FL_TRIAL1_A,B4,2.4,4.341085271,1.502379066,1.746215136,0.992745308,DB22P31,2.15,BEFI,Father,B,BEFI,30,9,13,1/11/22,15,L,0.69,x,-0.5299,0.1363,0.000765,NA,Bad,N,N,Inverted; Might not be auditory,0.294357143,0.208571429,0.2975,0.094357143,0.008571429,0.0975,0.105,0.003356934,Y,0.257218343
B4,FL,1,A,2,B4_FL_TRIAL1_A,B4,4.133333333,3.737373737,2.445598573,1.930739166,-0.326440827,LP74,1.32,ZEBI,Unfamiliar,B,BEFI,30,9,13,1/11/22,15,L,0.69,x,-0.5299,0.1363,0.000765,NA,Bad,N,N,Inverted; Might not be auditory,0.200642857,0.203785714,0.184,0.000642857,0.003785714,-0.016,0.335,0.20091609,N,0.257218343
B4,FL,1,A,3,B4_FL_TRIAL1_A,B4,4.2,4.63356974,2.177810171,1.440224472,0.172436092,LP85,1.41,ZEBI,Unfamiliar,B,BEFI,30,9,13,1/11/22,15,L,0.69,x,-0.5299,0.1363,0.000765,NA,Bad,N,N,Inverted; Might not be auditory,0.234071429,0.216357143,0.225571429,0.034071429,0.016357143,0.025571429,0.09,0.75470463,N,0.257218343
B4,FL,1,A,4,B4_FL_TRIAL1_A,B4,3.6,2.705882353,1.882247896,1.013990127,-0.552467993,WN,1.7,WN,WN,B,BEFI,30,9,13,1/11/22,15,L,0.69,x,-0.5299,0.1363,0.000765,NA,Bad,N,N,Inverted; Might not be auditory,0.203357143,0.331071429,0.223928571,0.003357143,0.131071429,0.023928571,NA,0.073427733,N,0.257218343
B4,FL,1,A,5,B4_FL_TRIAL1_A,B4,3.066666667,4.047619048,1.334523279,2.204333571,0.531351549,YE77,1.4,BEFI,Unfamiliar,B,BEFI,30,9,13,1/11/22,15,L,0.69,x,-0.5299,0.1363,0.000765,NA,Bad,N,N,Inverted; Might not be auditory,0.208571429,0.152928571,0.2315,0.008571429,-0.047071429,0.0315,0.03,0.111624256,N,0.257218343
B4,FL,2,B,1,B4_FL_TRIAL2_B,B4,5.909090909,9.34460888,2.700168345,3.150829266,0.792182234,DB22P31,2.15,BEFI,Father,B,BEFI,30,9,13,1/11/22,15,L,0.89,x,-0.577,0.378,0.00024,NA,Good,Y,N,"Inverted, Drifts into spot around 200s, not really there before this (cut out first 200s for both units)",0.4997,0.4745,0.5329,0.2997,0.2745,0.3329,0.075,0.053710938,N,0.655112652
B4,FL,2,B,2,B4_FL_TRIAL2_B,B4,6.5,11.23737374,3.777926319,3.819883161,0.889151853,LP74,1.32,ZEBI,Unfamiliar,B,BEFI,30,9,13,1/11/22,15,L,0.89,x,-0.577,0.378,0.00024,NA,Good,Y,N,"Inverted, Drifts into spot around 200s, not really there before this (cut out first 200s for both units)",0.5556,0.2137,0.5406,0.3556,0.0137,0.3406,0.245,0.016113281,Y,0.655112652
B4,FL,2,B,3,B4_FL_TRIAL2_B,B4,6.636363636,11.0896196,4.738622738,2.823955085,1.140542415,LP85,1.41,ZEBI,Unfamiliar,B,BEFI,30,9,13,1/11/22,15,L,0.89,x,-0.577,0.378,0.00024,NA,Good,Y,N,"Inverted, Drifts into spot around 200s, not really there before this (cut out first 200s for both units)",0.5346,0.2959,0.523,0.3346,0.0959,0.323,0.105,0.018408252,Y,0.655112652
B4,FL,2,B,4,B4_FL_TRIAL2_B,B4,5.75,6.764705882,3.545163158,2.564058202,0.320761845,WN,1.7,WN,WN,B,BEFI,30,9,13,1/11/22,15,L,0.89,x,-0.577,0.378,0.00024,NA,Good,Y,N,"Inverted, Drifts into spot around 200s, not really there before this (cut out first 200s for both units)",0.2828,0.3559,0.3056,0.0828,0.1559,0.1056,0.08,0.423828125,N,0.655112652
B4,FL,2,B,5,B4_FL_TRIAL2_B,B4,5.909090909,9.935064935,3.67299729,2.9872953,1.355716821,YE77,1.4,BEFI,Unfamiliar,B,BEFI,30,9,13,1/11/22,15,L,0.89,x,-0.577,0.378,0.00024,NA,Good,Y,N,"Inverted, Drifts into spot around 200s, not really there before this (cut out first 200s for both units)",0.448,0.3732,0.4518,0.248,0.1732,0.2518,0.135,0.002929688,Y,0.655112652
B4,FL,3,A,1,B4_FL_TRIAL3_A,B4,1.666666667,4.930232558,1.632993162,3.329957857,0.973284998,DB22P31,2.15,BEFI,Father,B,BEFI,30,9,13,1/11/22,15,R,1.14,ok,-0.4909,0.0884,0.00048,NA,Bad,Y,N,Inverted; Lost sweet spot after 250s but keep whole trial,0.28275,0.21075,0.303,0.08275,0.01075,0.103,0.015,0.001329052,Y,0.180077409
B4,FL,3,A,2,B4_FL_TRIAL3_A,B4,2.071428571,7.413419914,2.092634913,4.633744056,1.69979888,LP74,1.32,ZEBI,Unfamiliar,B,BEFI,30,9,13,1/11/22,15,R,1.14,ok,-0.4909,0.0884,0.00048,NA,Bad,Y,N,Inverted; Lost sweet spot after 250s but keep whole trial,0.494416667,0.277083333,0.487583333,0.294416667,0.077083333,0.287583333,0.01,0.001359195,Y,0.180077409
B4,FL,3,A,3,B4_FL_TRIAL3_A,B4,2.533333333,7.281323877,2.899917897,4.104614944,1.398263166,LP85,1.41,ZEBI,Unfamiliar,B,BEFI,30,9,13,1/11/22,15,R,1.14,ok,-0.4909,0.0884,0.00048,NA,Bad,Y,N,Inverted; Lost sweet spot after 250s but keep whole trial,0.332333333,0.225916667,0.29675,0.132333333,0.025916667,0.09675,0.12,0.000183105,Y,0.180077409
B4,FL,3,A,4,B4_FL_TRIAL3_A,B4,2,2.398190045,1.779513042,1.755885448,0.319487822,WN,1.7,WN,WN,B,BEFI,30,9,13,1/11/22,15,R,1.14,ok,-0.4909,0.0884,0.00048,NA,Bad,Y,N,Inverted; Lost sweet spot after 250s but keep whole trial,0.11075,0.571166667,0.21325,-0.08925,0.371166667,0.01325,0.05,0.123944997,N,0.180077409
B4,FL,3,A,5,B4_FL_TRIAL3_A,B4,1.266666667,7.904761905,1.709915063,4.537394568,1.641199821,YE77,1.4,BEFI,Unfamiliar,B,BEFI,30,9,13,1/11/22,15,R,1.14,ok,-0.4909,0.0884,0.00048,NA,Bad,Y,N,Inverted; Lost sweet spot after 250s but keep whole trial,0.36525,0.17775,0.3295,0.16525,-0.02225,0.1295,0.085,0.00012207,Y,0.180077409
B4,FL,3,B,1,B4_FL_TRIAL3_B,B4,0.733333333,1.92248062,1.162919151,1.253802581,0.669040714,DB22P31,2.15,BEFI,Father,B,BEFI,30,9,13,1/11/22,15,R,1.14,ok,0.4589,0,0.0015,NA,Bad,Y,N,Fat and ugly; Lost sweet spot after 250s but keep whole trial,0.32725,0.235833333,0.24075,0.12725,0.035833333,0.04075,0.02,0.038015068,Y,0
B4,FL,3,B,2,B4_FL_TRIAL3_B,B4,1.071428571,4.437229437,1.639150142,2.318062653,1.231659637,LP74,1.32,ZEBI,Unfamiliar,B,BEFI,30,9,13,1/11/22,15,R,1.14,ok,0.4589,0,0.0015,NA,Bad,Y,N,Fat and ugly; Lost sweet spot after 250s but keep whole trial,0.603583333,0.398666667,0.60425,0.403583333,0.198666667,0.40425,0.015,0.002065815,Y,0
B4,FL,3,B,3,B4_FL_TRIAL3_B,B4,1.066666667,2.884160756,1.387014608,1.618750446,0.927159647,LP85,1.41,ZEBI,Unfamiliar,B,BEFI,30,9,13,1/11/22,15,R,1.14,ok,0.4589,0,0.0015,NA,Bad,Y,N,Fat and ugly; Lost sweet spot after 250s but keep whole trial,0.35175,0.239916667,0.324833333,0.15175,0.039916667,0.124833333,0.155,0.006905124,Y,0
B4,FL,3,B,4,B4_FL_TRIAL3_B,B4,0.692307692,1.176470588,0.854850414,1.440876319,0.280320588,WN,1.7,WN,WN,B,BEFI,30,9,13,1/11/22,15,R,1.14,ok,0.4589,0,0.0015,NA,Bad,Y,N,Fat and ugly; Lost sweet spot after 250s but keep whole trial,0.130583333,0.515583333,0.355666667,-0.069416667,0.315583333,0.155666667,0.01,0.812380364,N,0
B4,FL,3,B,5,B4_FL_TRIAL3_B,B4,0.533333333,3.714285714,0.743223353,2.146255808,1.578724247,YE77,1.4,BEFI,Unfamiliar,B,BEFI,30,9,13,1/11/22,15,R,1.14,ok,0.4589,0,0.0015,NA,Bad,Y,N,Fat and ugly; Lost sweet spot after 250s but keep whole trial,0.662916667,0.372666667,0.720416667,0.462916667,0.172666667,0.520416667,0.165,0.001355471,Y,0
B4,FL,4,A,1,B4_FL_TRIAL4_A,B4,1.6,3.627906977,1.352246808,1.23309084,1.121093778,DB22P31,2.15,BEFI,Father,B,BEFI,30,9,13,1/11/22,15,R,1.27,x,-0.4791,0.1626,0.00048,NA,Good,N,N,Inverted,0.220307692,0.197153846,0.237615385,0.020307692,-0.002846154,0.037615385,0.215,0.004120509,Y,0.339386349
B4,FL,4,A,2,B4_FL_TRIAL4_A,B4,1.785714286,3.896103896,1.050902281,2.098133335,0.837790388,LP74,1.32,ZEBI,Unfamiliar,B,BEFI,30,9,13,1/11/22,15,R,1.27,x,-0.4791,0.1626,0.00048,NA,Good,N,N,Inverted,0.266076923,0.236230769,0.289615385,0.066076923,0.036230769,0.089615385,0.045,0.010002591,Y,0.339386349
B4,FL,4,A,3,B4_FL_TRIAL4_A,B4,1.928571429,5.369807497,1.206666464,2.202964249,1.964552183,LP85,1.41,ZEBI,Unfamiliar,B,BEFI,30,9,13,1/11/22,15,R,1.27,x,-0.4791,0.1626,0.00048,NA,Good,N,N,Inverted,0.410846154,0.337153846,0.281,0.210846154,0.137153846,0.081,0.19,0.00109394,Y,0.339386349
B4,FL,4,A,4,B4_FL_TRIAL4_A,B4,1.866666667,1.882352941,1.684664726,1.023693602,0.00694194,WN,1.7,WN,WN,B,BEFI,30,9,13,1/11/22,15,R,1.27,x,-0.4791,0.1626,0.00048,NA,Good,N,N,Inverted,0.135769231,0.349384615,0.178538462,-0.064230769,0.149384615,-0.021461538,NA,0.977335508,N,0.339386349
B4,FL,4,A,5,B4_FL_TRIAL4_A,B4,1.6,4.285714286,1.183215957,1.66423535,1.265503184,YE77,1.4,BEFI,Unfamiliar,B,BEFI,30,9,13,1/11/22,15,R,1.27,x,-0.4791,0.1626,0.00048,NA,Good,N,N,Inverted,0.301,0.254,0.304461538,0.101,0.054,0.104461538,0.205,0.001329052,Y,0.339386349
B4,FL,5,A,1,B4_FL_TRIAL5_A,B4,4.714285714,10.63122923,1.603567451,1.789913678,2.463324388,DB22P31,2.15,BEFI,Father,B,BEFI,30,9,13,1/11/22,15,R,1.34,x,-0.4321,0.0835,0.00048,NA,Bad,Y,N,Inverted; Lost spot after 385s,0.348333333,0.485166667,0.319333333,0.148333333,0.285166667,0.119333333,0.035,0.015625,Y,0.193242305
B4,FL,5,A,2,B4_FL_TRIAL5_A,B4,3,12.98701299,1.825741858,3.773421184,2.640609799,LP74,1.32,ZEBI,Unfamiliar,B,BEFI,30,9,13,1/11/22,15,R,1.34,x,-0.4321,0.0835,0.00048,NA,Bad,Y,N,Inverted; Lost spot after 385s,0.5225,0.342166667,0.461333333,0.3225,0.142166667,0.261333333,0.105,0.015625,Y,0.193242305
B4,FL,5,A,3,B4_FL_TRIAL5_A,B4,5,12.86727457,2.309401077,1.555363584,2.382894883,LP85,1.41,ZEBI,Unfamiliar,B,BEFI,30,9,13,1/11/22,15,R,1.34,x,-0.4321,0.0835,0.00048,NA,Bad,Y,N,Inverted; Lost spot after 385s,0.632,0.394,0.595,0.432,0.194,0.395,0.155,0.022254125,Y,0.193242305
B4,FL,5,A,4,B4_FL_TRIAL5_A,B4,4,5.714285714,2.581988897,2.193475849,0.437858312,WN,1.7,WN,WN,B,BEFI,30,9,13,1/11/22,15,R,1.34,x,-0.4321,0.0835,0.00048,NA,Bad,Y,N,Inverted; Lost spot after 385s,0.234,0.461166667,0.305666667,0.034,0.261166667,0.105666667,0.16,0.498194057,N,0.193242305
B4,FL,5,A,5,B4_FL_TRIAL5_A,B4,4.857142857,10.10204082,2.734262328,3.335761992,1.478844334,YE77,1.4,BEFI,Unfamiliar,B,BEFI,30,9,13,1/11/22,15,R,1.34,x,-0.4321,0.0835,0.00048,NA,Bad,Y,N,Inverted; Lost spot after 385s,0.326666667,0.375833333,0.332166667,0.126666667,0.175833333,0.132166667,0.18,0.015625,Y,0.193242305
B4,FL,6,A,1,B4_FL_TRIAL6_A,B4,7.333333333,8.682170543,4.974937186,4.922328022,2.139038892,DB22P31,2.15,BEFI,Father,B,BEFI,30,9,13,1/11/22,15,R,1,x,-0.653,0.147,0.000376,NA,Bad,Y,N,"Inverted, lost spot after 500s",0.522142857,0.336714286,0.545714286,0.322142857,0.136714286,0.345714286,0.29,0.203125,N,0.225114855
B4,FL,6,A,2,B4_FL_TRIAL6_A,B4,5.444444444,10.01683502,5.101742622,4.935560679,0.982417015,LP74,1.32,ZEBI,Unfamiliar,B,BEFI,30,9,13,1/11/22,15,R,1,x,-0.653,0.147,0.000376,NA,Bad,Y,N,"Inverted, lost spot after 500s",0.278285714,0.177285714,0.253,0.078285714,-0.022714286,0.053,0.125,0.043825584,Y,0.225114855
B4,FL,6,A,3,B4_FL_TRIAL6_A,B4,6.7,9.503546099,6.51579278,3.10404682,0.652141246,LP85,1.41,ZEBI,Unfamiliar,B,BEFI,30,9,13,1/11/22,15,R,1,x,-0.653,0.147,0.000376,NA,Bad,Y,N,"Inverted, lost spot after 500s",0.478714286,0.272285714,0.430857143,0.278714286,0.072285714,0.230857143,0.26,0.082731022,N,0.225114855
B4,FL,6,A,4,B4_FL_TRIAL6_A,B4,5.5,6.838235295,2.672612419,4.134867952,1.505800766,WN,1.7,WN,WN,B,BEFI,30,9,13,1/11/22,15,R,1,x,-0.653,0.147,0.000376,NA,Bad,Y,N,"Inverted, lost spot after 500s",0.191857143,0.361714286,0.208714286,-0.008142857,0.161714286,0.008714286,NA,0.109375,N,0.225114855
B4,FL,6,A,5,B4_FL_TRIAL6_A,B4,6.111111111,8.650793651,5.57773351,4.409585518,0.641522214,YE77,1.4,BEFI,Unfamiliar,B,BEFI,30,9,13,1/11/22,15,R,1,x,-0.653,0.147,0.000376,NA,Bad,Y,N,"Inverted, lost spot after 500s",0.365,0.264,0.391285714,0.165,0.064,0.191285714,NA,0.1640625,N,0.225114855
B4,FL,6,B,1,B4_FL_TRIAL6_B,B4,5.222222222,9.92248062,4.085883557,4.134043914,1.248278161,DB22P31,2.15,BEFI,Father,B,BEFI,30,9,13,1/11/22,15,R,1,x,0.5741,-0.0418,0.00126,NA,Bad,Y,N, lost spot after 500s,0.532714286,0.367,0.547571429,0.332714286,0.167,0.347571429,0.045,0.024265276,Y,0.072809615
B4,FL,6,B,2,B4_FL_TRIAL6_B,B4,2.666666667,10.94276094,2,2.544121424,7.283138799,LP74,1.32,ZEBI,Unfamiliar,B,BEFI,30,9,13,1/11/22,15,R,1,x,0.5741,-0.0418,0.00126,NA,Bad,Y,N, lost spot after 500s,0.642571429,0.517571429,0.59,0.442571429,0.317571429,0.39,0.035,0.00390625,Y,0.072809615
B4,FL,6,B,3,B4_FL_TRIAL6_B,B4,3,15.10638298,2.160246899,4.948188769,2.198116908,LP85,1.41,ZEBI,Unfamiliar,B,BEFI,30,9,13,1/11/22,15,R,1,x,0.5741,-0.0418,0.00126,NA,Bad,Y,N, lost spot after 500s,0.612714286,0.303428571,0.553142857,0.412714286,0.103428571,0.353142857,0.09,0.001953125,Y,0.072809615
B4,FL,6,B,4,B4_FL_TRIAL6_B,B4,3.25,5.882352941,2.187627547,2.352941177,1.219146769,WN,1.7,WN,WN,B,BEFI,30,9,13,1/11/22,15,R,1,x,0.5741,-0.0418,0.00126,NA,Bad,Y,N, lost spot after 500s,0.158,0.599857143,0.235285714,-0.042,0.399857143,0.035285714,0.06,0.0234375,Y,0.072809615
B4,FL,6,B,5,B4_FL_TRIAL6_B,B4,3.888888889,10.3968254,3.443996387,3.216489545,1.690581507,YE77,1.4,BEFI,Unfamiliar,B,BEFI,30,9,13,1/11/22,15,R,1,x,0.5741,-0.0418,0.00126,NA,Bad,Y,N, lost spot after 500s,0.846857143,0.672714286,0.878142857,0.646857143,0.472714286,0.678142857,0.095,0.00390625,Y,0.072809615
C1,FL,10,A,1,C1_FL_TRIAL10_A,C12,5.933333333,13.7745098,3.390462814,5.158051487,1.742373481,APU170,1.36,ZEBI,Unfamiliar,C,xfostered,23,2,10,10/24/21,15,L,1.39,x,-0.686,0.225,0.00054,NA,Good,N,N,STIM SET 2 Inverted,0.2516,0.118,0.2373,0.0516,-0.082,0.0373,0.26,6.10E-05,Y,0.327988338
C1,FL,10,A,2,C1_FL_TRIAL10_A,C12,7.230769231,9.969230769,2.712742959,3.243296835,0.801030139,BEFI1,2.5,BEFI,Unfamiliar,C,xfostered,23,2,10,10/24/21,15,L,1.39,x,-0.686,0.225,0.00054,NA,Good,N,N,STIM SET 2 Inverted,0.2664,0.2533,0.2791,0.0664,0.0533,0.0791,0.155,0.0167287,Y,0.327988338
C1,FL,10,A,3,C1_FL_TRIAL10_A,C12,8.545454545,9.639104613,4.435394827,4.185167555,0.247375327,PU81,1.99,BEFI,Unfamiliar,C,xfostered,23,2,10,10/24/21,15,L,1.39,x,-0.686,0.225,0.00054,NA,Good,N,N,STIM SET 2 Inverted,0.4537,0.3676,0.4627,0.2537,0.1676,0.2627,0.325,0.637695313,N,0.327988338
C1,FL,10,A,4,C1_FL_TRIAL10_A,C12,7.533333333,7.37254902,3.542933947,3.765668645,-0.036961956,WN,1.7,WN,WN,C,xfostered,23,2,10,10/24/21,15,L,1.39,x,-0.686,0.225,0.00054,NA,Good,N,N,STIM SET 2 Inverted,0.1802,0.291,0.1977,-0.0198,0.091,-0.0023,NA,0.864677554,N,0.327988338
C1,FL,10,A,5,C1_FL_TRIAL10_A,C12,7.142857143,9.852216749,3.919520042,3.394041096,0.643960899,GY43GN194,1.45,ZEBI,Unfamiliar,C,xfostered,23,2,10,10/24/21,15,L,1.39,x,-0.686,0.225,0.00054,NA,Good,N,N,STIM SET 2 Inverted,0.2082,0.2204,0.2053,0.0082,0.0204,0.0053,NA,0.03527832,Y,0.327988338
C1,FL,10,B,1,C1_FL_TRIAL10_B,C12,8.933333333,14.21568627,2.865226659,4.33820562,1.403613049,APU170,1.36,ZEBI,Unfamiliar,C,xfostered,23,2,10,10/24/21,15,L,1.39,x,-1.132,0.565,0.00024,NA,Good,N,N,STIM SET 2 Inverted,0.4007,0.2405,0.3979,0.2007,0.0405,0.1979,0.12,0.000427246,Y,0.499116608
C1,FL,10,B,2,C1_FL_TRIAL10_B,C12,7.230769231,12.58461538,2.454718115,2.92855088,1.564913154,BEFI1,2.5,BEFI,Unfamiliar,C,xfostered,23,2,10,10/24/21,15,L,1.39,x,-1.132,0.565,0.00024,NA,Good,N,N,STIM SET 2 Inverted,0.5831,0.526,0.5118,0.3831,0.326,0.3118,0.145,0.004154489,Y,0.499116608
C1,FL,10,B,3,C1_FL_TRIAL10_B,C12,8.636363636,10.4613979,2.907670108,2.550647857,0.4623236,PU81,1.99,BEFI,Unfamiliar,C,xfostered,23,2,10,10/24/21,15,L,1.39,x,-1.132,0.565,0.00024,NA,Good,N,N,STIM SET 2 Inverted,0.1382,0.2653,0.1457,-0.0618,0.0653,-0.0543,0.13,0.147460938,N,0.499116608
C1,FL,10,B,4,C1_FL_TRIAL10_B,C12,9.2,9.019607842,3.384840152,3.157323765,-0.036294424,WN,1.7,WN,WN,C,xfostered,23,2,10,10/24/21,15,L,1.39,x,-1.132,0.565,0.00024,NA,Good,N,N,STIM SET 2 Inverted,0.1627,0.2839,0.2258,-0.0373,0.0839,0.0258,NA,0.934082031,N,0.499116608
C1,FL,10,B,5,C1_FL_TRIAL10_B,C12,10.78571429,12.61083744,3.092884425,2.514803098,0.489157865,GY43GN194,1.45,ZEBI,Unfamiliar,C,xfostered,23,2,10,10/24/21,15,L,1.39,x,-1.132,0.565,0.00024,NA,Good,N,N,STIM SET 2 Inverted,0.2061,0.2706,0.2024,0.0061,0.0706,0.0024,0.315,0.116461939,N,0.499116608
C1,FL,2,A,1,C1_FL_TRIAL2_A,C1,3.866666667,9.754901961,1.922300209,3.702290287,1.304070289,ALP47,1.36,ZEBI,Unfamiliar,C,xfostered,23,2,10,10/24/21,15,R,1.16,x,-0.918,0.48,0.000239765,NA,Good,N,N,Inverted,0.383153846,0.186692308,0.274307692,0.183153846,-0.013307692,0.074307692,0.04,0.000610352,Y,0.522875817
C1,FL,2,A,2,C1_FL_TRIAL2_A,C1,3.666666667,3.813953488,1.877181271,1.60351927,0.068482378,DB22P31,2.15,BEFI,FosterFather,C,xfostered,23,2,10,10/24/21,15,R,1.16,x,-0.918,0.48,0.000239765,NA,Good,N,N,Inverted,0.136230769,0.274769231,0.171846154,-0.063769231,0.074769231,-0.028153846,0.145,0.670066106,N,0.522875817
C1,FL,2,A,3,C1_FL_TRIAL2_A,C1,2.857142857,4.411764706,2.032699715,1.994802936,0.683140697,WN,1.7,WN,WN,C,xfostered,23,2,10,10/24/21,15,R,1.16,x,-0.918,0.48,0.000239765,NA,Good,N,N,Inverted,0.175692308,0.270076923,0.211384615,-0.024307692,0.070076923,0.011384615,0.045,0.041870117,Y,0.522875817
C1,FL,2,A,4,C1_FL_TRIAL2_A,C1,3.6,5.142857143,2.667261838,3.352471783,0.902006691,YE77,1.4,BEFI,Unfamiliar,C,xfostered,23,2,10,10/24/21,15,R,1.16,x,-0.918,0.48,0.000239765,NA,Good,N,N,Inverted,0.240384615,0.253923077,0.250230769,0.040384615,0.053923077,0.050230769,0.13,0.0134686,Y,0.522875817
C1,FL,2,A,5,C1_FL_TRIAL2_A,C1,4.2,8.133333333,4.003569836,2.819433692,0.953753821,GN81GN82,1.5,ZEBI,Father,C,xfostered,23,2,10,10/24/21,15,R,1.16,x,-0.918,0.48,0.000239765,NA,Good,N,N,Inverted,0.467538462,0.304230769,0.442461538,0.267538462,0.104230769,0.242461538,0.085,0.008361816,Y,0.522875817
C1,FL,3,A,1,C1_FL_TRIAL3_A,C1,2,6.225490196,1.558387445,2.420681065,1.354524493,ALP47,1.36,ZEBI,Unfamiliar,C,xfostered,23,2,10,10/24/21,15,R,1.21,x,-0.776,0.201,0.000179992,NA,Good,N,N,Inverted,0.364384615,0.208692308,0.311461538,0.164384615,0.008692308,0.111461538,0.155,0.001613473,Y,0.259020619
C1,FL,3,A,2,C1_FL_TRIAL3_A,C1,2.333333333,3.627906977,1.759328876,1.895027794,0.551521251,DB22P31,2.15,BEFI,FosterFather,C,xfostered,23,2,10,10/24/21,15,R,1.21,x,-0.776,0.201,0.000179992,NA,Good,N,N,Inverted,0.166384615,0.311384615,0.265307692,-0.033615385,0.111384615,0.065307692,NA,0.072998047,N,0.259020619
C1,FL,3,A,3,C1_FL_TRIAL3_A,C1,1.5,3.025210084,1.091928428,1.150323533,1.275047018,WN,1.7,WN,WN,C,xfostered,23,2,10,10/24/21,15,R,1.21,x,-0.776,0.201,0.000179992,NA,Good,N,N,Inverted,0.163384615,0.276384615,0.177846154,-0.036615385,0.076384615,-0.022153846,0.01,0.003862949,Y,0.259020619
C1,FL,3,A,4,C1_FL_TRIAL3_A,C1,1.733333333,6.047619047,1.830950833,2.47239374,1.395194117,YE77,1.4,BEFI,Unfamiliar,C,xfostered,23,2,10,10/24/21,15,R,1.21,x,-0.776,0.201,0.000179992,NA,Good,N,N,Inverted,0.286307692,0.220384615,0.297153846,0.086307692,0.020384615,0.097153846,0.12,0.001453567,Y,0.259020619
C1,FL,3,A,5,C1_FL_TRIAL3_A,C1,2,8.222222222,1.309307341,3.648584563,1.80150407,GN81GN82,1.5,ZEBI,Father,C,xfostered,23,2,10,10/24/21,15,R,1.21,x,-0.776,0.201,0.000179992,NA,Good,N,N,Inverted,0.366923077,0.264461538,0.292769231,0.166923077,0.064461538,0.092769231,0.075,0.000868554,Y,0.259020619
C1,FL,4,A,1,C1_FL_TRIAL4_A,C1,2.066666667,5.637254902,1.79151439,2.526837333,1.423263967,ALP47,1.36,ZEBI,Unfamiliar,C,xfostered,23,2,10,10/24/21,15,R,1.26,x,-0.695,0.199,0.000540091,NA,Good,Y,N,Inverted,0.2475,0.277214286,0.240642857,0.0475,0.077214286,0.040642857,0.165,0.000722919,Y,0.286330935
C1,FL,4,A,2,C1_FL_TRIAL4_A,C1,1.8,3.007751938,1.780850519,1.448240804,0.592142018,DB22P31,2.15,BEFI,FosterFather,C,xfostered,23,2,10,10/24/21,15,R,1.26,x,-0.695,0.199,0.000540091,NA,Good,Y,N,Inverted,0.235,0.326071429,0.248214286,0.035,0.126071429,0.048214286,NA,0.055358887,N,0.286330935
C1,FL,4,A,3,C1_FL_TRIAL4_A,C1,2.4,2.352941176,1.91982142,1.491448685,-0.021020298,WN,1.7,WN,WN,C,xfostered,23,2,10,10/24/21,15,R,1.26,x,-0.695,0.199,0.000540091,NA,Good,Y,N,Inverted,0.128214286,0.257,0.151571429,-0.071785714,0.057,-0.048428571,NA,0.932093283,N,0.286330935
C1,FL,4,A,4,C1_FL_TRIAL4_A,C1,2.8,4.238095238,2.144761059,1.465508864,0.650348749,YE77,1.4,BEFI,Unfamiliar,C,xfostered,23,2,10,10/24/21,15,R,1.26,x,-0.695,0.199,0.000540091,NA,Good,Y,N,Inverted,0.310571429,0.214142857,0.297071429,0.110571429,0.014142857,0.097071429,NA,0.038050001,Y,0.286330935
C1,FL,4,A,5,C1_FL_TRIAL4_A,C1,2,4.622222222,1.927248223,2.100138569,0.851300329,GN81GN82,1.5,ZEBI,Father,C,xfostered,23,2,10,10/24/21,15,R,1.26,x,-0.695,0.199,0.000540091,NA,Good,Y,N,Inverted,0.236428571,0.185857143,0.245642857,0.036428571,-0.014142857,0.045642857,0.1,0.005348481,Y,0.286330935
C1,FL,4,B,1,C1_FL_TRIAL4_B,C1,2.533333333,7.549019608,2.503331114,3.754082745,1.400887036,ALP47,1.36,ZEBI,Unfamiliar,C,xfostered,23,2,10,10/24/21,15,R,1.26,x,-0.661,0.3,0.00018,NA,Good,Y,N,Inverted,0.410357143,0.185857143,0.372357143,0.210357143,-0.014142857,0.172357143,0.065,0.001326062,Y,0.453857791
C1,FL,4,B,2,C1_FL_TRIAL4_B,C1,2.866666667,5.240310078,2.166849809,2.837191149,1.322385344,DB22P31,2.15,BEFI,FosterFather,C,xfostered,23,2,10,10/24/21,15,R,1.26,x,-0.661,0.3,0.00018,NA,Good,Y,N,Inverted,0.199142857,0.255714286,0.224571429,-0.000857143,0.055714286,0.024571429,NA,0.002357553,Y,0.453857791
C1,FL,4,B,3,C1_FL_TRIAL4_B,C1,2.2,3.490196078,1.61245155,2.77217538,0.517274041,WN,1.7,WN,WN,C,xfostered,23,2,10,10/24/21,15,R,1.26,x,-0.661,0.3,0.00018,NA,Good,Y,N,Inverted,0.088214286,0.419142857,0.136214286,-0.111785714,0.219142857,-0.063785714,0.075,0.083160929,N,0.453857791
C1,FL,4,B,4,C1_FL_TRIAL4_B,C1,2.333333333,5.904761904,2.526054707,4.186493159,1.219810553,YE77,1.4,BEFI,Unfamiliar,C,xfostered,23,2,10,10/24/21,15,R,1.26,x,-0.661,0.3,0.00018,NA,Good,Y,N,Inverted,0.360071429,0.255785714,0.367571429,0.160071429,0.055785714,0.167571429,0.15,0.000724715,Y,0.453857791
C1,FL,4,B,5,C1_FL_TRIAL4_B,C1,1.666666667,8.177777778,1.67616342,4.212352709,1.99280867,GN81GN82,1.5,ZEBI,Father,C,xfostered,23,2,10,10/24/21,15,R,1.26,x,-0.661,0.3,0.00018,NA,Good,Y,N,Inverted,0.439142857,0.182285714,0.375285714,0.239142857,-0.017714286,0.175285714,0.125,6.10E-05,Y,0.453857791
C1,FL,5,A,1,C1_FL_TRIAL5_A,C1,2.4,9.362745098,1.723783215,2.554199112,3.40662366,ALP47,1.36,ZEBI,Unfamiliar,C,xfostered,23,2,10,10/24/21,15,R,1.36,x,-0.546,0.331,0.00018,NA,Good,N,N,Inverted,0.342692308,0.289,0.376615385,0.142692308,0.089,0.176615385,0.085,6.10E-05,Y,0.606227106
C1,FL,5,A,2,C1_FL_TRIAL5_A,C1,2.928571429,6.777408638,1.141138818,2.512782388,2.092875325,DB22P31,2.15,BEFI,FosterFather,C,xfostered,23,2,10,10/24/21,15,R,1.36,x,-0.546,0.331,0.00018,NA,Good,N,N,Inverted,0.386461538,0.371923077,0.439384615,0.186461538,0.171923077,0.239384615,NA,0.00109394,Y,0.606227106
C1,FL,5,A,3,C1_FL_TRIAL5_A,C1,2,3.176470588,1.309307341,3.150532128,0.393660983,WN,1.7,WN,WN,C,xfostered,23,2,10,10/24/21,15,R,1.36,x,-0.546,0.331,0.00018,NA,Good,N,N,Inverted,0.178153846,0.450384615,0.223692308,-0.021846154,0.250384615,0.023692308,0.135,0.293188173,N,0.606227106
C1,FL,5,A,4,C1_FL_TRIAL5_A,C1,3.357142857,9.744897959,2.307417566,3.928393032,1.747394535,YE77,1.4,BEFI,Unfamiliar,C,xfostered,23,2,10,10/24/21,15,R,1.36,x,-0.546,0.331,0.00018,NA,Good,N,N,Inverted,0.347923077,0.241230769,0.309769231,0.147923077,0.041230769,0.109769231,0.02,0.00012207,Y,0.606227106
C1,FL,5,A,5,C1_FL_TRIAL5_A,C1,4.428571429,8.428571428,2.243427519,2.68719207,1.104836537,GN81GN82,1.5,ZEBI,Father,C,xfostered,23,2,10,10/24/21,15,R,1.36,x,-0.546,0.331,0.00018,NA,Good,N,N,Inverted,0.328615385,0.338230769,0.254153846,0.128615385,0.138230769,0.054153846,0.09,0.003150312,Y,0.606227106
C1,FL,5,B,1,C1_FL_TRIAL5_B,C1,3.133333333,6.12745098,2.030716505,1.958594715,1.160289842,ALP47,1.36,ZEBI,Unfamiliar,C,xfostered,23,2,10,10/24/21,15,R,1.36,x,0.515,-0.0859,0.000239989,NA,Good,N,Y,Trough before peak,0.480923077,0.379769231,0.405923077,0.280923077,0.179769231,0.205923077,0.15,0.001953146,Y,0.166796117
C1,FL,5,B,2,C1_FL_TRIAL5_B,C1,2.142857143,3.388704319,2.413332929,1.646240454,0.389035113,DB22P31,2.15,BEFI,FosterFather,C,xfostered,23,2,10,10/24/21,15,R,1.36,x,0.515,-0.0859,0.000239989,NA,Good,N,Y,Trough before peak,0.137,0.352538462,0.176230769,-0.063,0.152538462,-0.023769231,NA,0.090002855,N,0.166796117
C1,FL,5,B,3,C1_FL_TRIAL5_B,C1,2.333333333,2.235294118,1.2344268,1.070892929,-0.074402973,WN,1.7,WN,WN,C,xfostered,23,2,10,10/24/21,15,R,1.36,x,0.515,-0.0859,0.000239989,NA,Good,N,Y,Trough before peak,0.100769231,0.391076923,0.254692308,-0.099230769,0.191076923,0.054692308,NA,0.571892264,N,0.166796117
C1,FL,5,B,4,C1_FL_TRIAL5_B,C1,2.285714286,5.408163265,1.540657773,3.052578055,1.065959718,YE77,1.4,BEFI,Unfamiliar,C,xfostered,23,2,10,10/24/21,15,R,1.36,x,0.515,-0.0859,0.000239989,NA,Good,N,Y,Trough before peak,0.366846154,0.197692308,0.330692308,0.166846154,-0.002307692,0.130692308,NA,0.002105245,Y,0.166796117
C1,FL,5,B,5,C1_FL_TRIAL5_B,C1,3.142857143,5.095238095,1.833749537,1.765909714,0.862470838,GN81GN82,1.5,ZEBI,Father,C,xfostered,23,2,10,10/24/21,15,R,1.36,x,0.515,-0.0859,0.000239989,NA,Good,N,Y,Trough before peak,0.311230769,0.288769231,0.287923077,0.111230769,0.088769231,0.087923077,0.13,0.016865357,Y,0.166796117
C1,FL,6,A,1,C1_FL_TRIAL6_A,C1,3.733333333,13.43137255,1.709915063,3.037633998,2.99378924,ALP47,1.36,ZEBI,Unfamiliar,C,xfostered,23,2,10,10/24/21,15,R,1.41,x,-0.644,0.422,0.000179999,NA,Good,N,N,Inverted,0.482307692,0.371923077,0.354,0.282307692,0.171923077,0.154,0.06,6.10E-05,Y,0.655279503
C1,FL,6,A,2,C1_FL_TRIAL6_A,C1,5.533333333,11.1627907,4.155317878,2.553605163,1.082343282,DB22P31,2.15,BEFI,FosterFather,C,xfostered,23,2,10,10/24/21,15,R,1.41,x,-0.644,0.422,0.000179999,NA,Good,N,N,Inverted,0.589923077,0.432615385,0.663692308,0.389923077,0.232615385,0.463692308,NA,0.002624512,Y,0.655279503
C1,FL,6,A,3,C1_FL_TRIAL6_A,C1,3.933333333,5.137254902,1.486446706,1.757220352,0.51472199,WN,1.7,WN,WN,C,xfostered,23,2,10,10/24/21,15,R,1.41,x,-0.644,0.422,0.000179999,NA,Good,N,N,Inverted,0.128769231,0.662384615,0.189923077,-0.071230769,0.462384615,-0.010076923,0.35,0.073543888,N,0.655279503
C1,FL,6,A,4,C1_FL_TRIAL6_A,C1,3,11.78571429,2.511511957,2.97490815,1.927397726,YE77,1.4,BEFI,Unfamiliar,C,xfostered,23,2,10,10/24/21,15,R,1.41,x,-0.644,0.422,0.000179999,NA,Good,N,N,Inverted,0.472846154,0.279384615,0.442615385,0.272846154,0.079384615,0.242615385,0.11,0.001362926,Y,0.655279503
C1,FL,6,A,5,C1_FL_TRIAL6_A,C1,4.8,12.66666667,3.342368707,3.275692099,1.588117014,GN81GN82,1.5,ZEBI,Father,C,xfostered,23,2,10,10/24/21,15,R,1.41,x,-0.644,0.422,0.000179999,NA,Good,N,N,Inverted,0.516615385,0.438769231,0.484,0.316615385,0.238769231,0.284,0.115,0.001320093,Y,0.655279503
C1,FL,8,A,1,C1_FL_TRIAL8_A,C12,3.533333333,5.294117647,2.503331114,1.96908258,0.702942243,APU170,1.36,ZEBI,Unfamiliar,C,xfostered,23,2,10,10/24/21,15,L,1.29,x,-1.217,0.244,0.000240001,NA,Good,N,N,STIM SET 2 Inverted,0.258785714,0.216285714,0.232857143,0.058785714,0.016285714,0.032857143,0.23,0.028703468,Y,0.200493016
C1,FL,8,A,2,C1_FL_TRIAL8_A,C12,2.8,5.12,1.521277659,1.77087549,1.019510693,BEFI1,2.5,BEFI,Unfamiliar,C,xfostered,23,2,10,10/24/21,15,L,1.29,x,-1.217,0.244,0.000240001,NA,Good,N,N,STIM SET 2 Inverted,0.487714286,0.515071429,0.4925,0.287714286,0.315071429,0.2925,NA,0.008357828,Y,0.200493016
C1,FL,8,A,3,C1_FL_TRIAL8_A,C12,3.666666667,4.623115578,1.914854216,1.359042018,0.559655029,PU81,1.99,BEFI,Unfamiliar,C,xfostered,23,2,10,10/24/21,15,L,1.29,x,-1.217,0.244,0.000240001,NA,Good,N,N,STIM SET 2 Inverted,0.281071429,0.2315,0.2865,0.081071429,0.0315,0.0865,0.15,0.038088867,Y,0.200493016
C1,FL,8,A,4,C1_FL_TRIAL8_A,C12,4.133333333,3.333333333,2.695675549,1.895263846,-0.233290403,WN,1.7,WN,WN,C,xfostered,23,2,10,10/24/21,15,L,1.29,x,-1.217,0.244,0.000240001,NA,Good,N,N,STIM SET 2 Inverted,0.156642857,0.324428571,0.181571429,-0.043357143,0.124428571,-0.018428571,NA,0.55085448,N,0.200493016
C1,FL,8,A,5,C1_FL_TRIAL8_A,C12,3.133333333,4.183908046,2.231804736,1.73820208,0.319211542,GY43GN194,1.45,ZEBI,Unfamiliar,C,xfostered,23,2,10,10/24/21,15,L,1.29,x,-1.217,0.244,0.000240001,NA,Good,N,N,STIM SET 2 Inverted,0.216071429,0.205928571,0.202857143,0.016071429,0.005928571,0.002857143,0.21,0.181794921,N,0.200493016
C1,FL,9,A,1,C1_FL_TRIAL9_A,C12,8.571428571,9.453781513,2.173769704,3.299158117,0.22579621,APU170,1.36,ZEBI,Unfamiliar,C,xfostered,23,2,10,10/24/21,15,L,1.34,x,-1.085,0.595,0.000240007,NA,Bad,N,N,STIM SET 2 Inverted,0.344153846,0.287230769,0.367,0.144153846,0.087230769,0.167,0.22,0.669799805,N,0.548387097
C1,FL,9,A,2,C1_FL_TRIAL9_A,C12,7.214285714,10.05714286,2.778449247,1.591184506,0.785002462,BEFI1,2.5,BEFI,Unfamiliar,C,xfostered,23,2,10,10/24/21,15,L,1.34,x,-1.085,0.595,0.000240007,NA,Bad,N,N,STIM SET 2 Inverted,0.391692308,0.440923077,0.327461538,0.191692308,0.240923077,0.127461538,NA,0.023479538,Y,0.548387097
C1,FL,9,A,3,C1_FL_TRIAL9_A,C12,8.285714286,9.368269922,2.920183646,2.887435766,0.427012773,PU81,1.99,BEFI,Unfamiliar,C,xfostered,23,2,10,10/24/21,15,L,1.34,x,-1.085,0.595,0.000240007,NA,Bad,N,N,STIM SET 2 Inverted,0.232538462,0.150461538,0.248923077,0.032538462,-0.049538462,0.048923077,0.12,0.135253906,N,0.548387097
C1,FL,9,A,4,C1_FL_TRIAL9_A,C12,6.4,7.568627451,3.224903099,2.403518045,0.416085766,WN,1.7,WN,WN,C,xfostered,23,2,10,10/24/21,15,L,1.34,x,-1.085,0.595,0.000240007,NA,Bad,N,N,STIM SET 2 Inverted,0.154692308,0.338923077,0.170923077,-0.045307692,0.138923077,-0.029076923,NA,0.181794921,N,0.548387097
C1,FL,9,A,5,C1_FL_TRIAL9_A,C12,7.733333333,8.413793104,2.374467359,2.869685397,0.210936336,GY43GN194,1.45,ZEBI,Unfamiliar,C,xfostered,23,2,10,10/24/21,15,L,1.34,x,-1.085,0.595,0.000240007,NA,Bad,N,N,STIM SET 2 Inverted,0.198923077,0.175769231,0.195230769,-0.001076923,-0.024230769,-0.004769231,0.16,0.513570734,N,0.548387097
C1,FL,9,B,1,C1_FL_TRIAL9_B,C12,2.714285714,4.411764706,1.857565463,2.158233487,0.57307754,APU170,1.36,ZEBI,Unfamiliar,C,xfostered,23,2,10,10/24/21,15,L,1.34,x,-1.154,0.535,0.000538728,NA,Bad,N,N,STIM SET 2 Inverted,0.257923077,0.206846154,0.264384615,0.057923077,0.006846154,0.064384615,0.17,0.038205314,Y,0.463604853
C1,FL,9,B,2,C1_FL_TRIAL9_B,C12,2.714285714,3.857142857,1.489892687,1.417318316,0.561851977,BEFI1,2.5,BEFI,Unfamiliar,C,xfostered,23,2,10,10/24/21,15,L,1.34,x,-1.154,0.535,0.000538728,NA,Bad,N,N,STIM SET 2 Inverted,0.300538462,0.204307692,0.262769231,0.100538462,0.004307692,0.062769231,0.365,0.067626953,N,0.463604853
C1,FL,9,B,3,C1_FL_TRIAL9_B,C12,2.285714286,3.625269203,2.091321681,1.490413911,0.655189375,PU81,1.99,BEFI,Unfamiliar,C,xfostered,23,2,10,10/24/21,15,L,1.34,x,-1.154,0.535,0.000538728,NA,Bad,N,N,STIM SET 2 Inverted,0.173769231,0.284384615,0.163461538,-0.026230769,0.084384615,-0.036538462,0.205,0.051588654,N,0.463604853
C1,FL,9,B,4,C1_FL_TRIAL9_B,C12,2.733333333,2.392156863,1.486446706,1.165212238,-0.243543427,WN,1.7,WN,WN,C,xfostered,23,2,10,10/24/21,15,L,1.34,x,-1.154,0.535,0.000538728,NA,Bad,N,N,STIM SET 2 Inverted,0.152076923,0.207,0.168461538,-0.047923077,0.007,-0.031538462,NA,0.887042291,N,0.463604853
C1,FL,9,B,5,C1_FL_TRIAL9_B,C12,2.666666667,3.08045977,1.397276262,1.351107396,0.212586587,GY43GN194,1.45,ZEBI,Unfamiliar,C,xfostered,23,2,10,10/24/21,15,L,1.34,x,-1.154,0.535,0.000538728,NA,Bad,N,N,STIM SET 2 Inverted,0.238692308,0.253384615,0.248692308,0.038692308,0.053384615,0.048692308,NA,0.442678699,N,0.463604853
C1,NCM,2,A,1,C1_NCM_TRIAL2_A,C1,3.466666667,8.921568628,2.948768912,2.468077623,1.866436133,ALP47,1.36,ZEBI,Unfamiliar,C,xfostered,23,2,10,10/24/21,15,R,1.58,x,0.4014,-0.0498,0.000239973,NA,Good,N,Y,Actually had double hyperpolarization hump but I measured the first one,0.334384615,0.259923077,0.300307692,0.134384615,0.059923077,0.100307692,0.215,0.000887625,Y,0.12406577
C1,NCM,2,A,2,C1_NCM_TRIAL2_A,C1,4.066666667,8.279069768,2.186538905,2.096342883,1.305515819,DB22P31,2.15,BEFI,FosterFather,C,xfostered,23,2,10,10/24/21,15,R,1.58,x,0.4014,-0.0498,0.000239973,NA,Good,N,Y,Actually had double hyperpolarization hump but I measured the first one,0.278615385,0.365384615,0.293,0.078615385,0.165384615,0.093,0.075,0.000427246,Y,0.12406577
C1,NCM,2,A,3,C1_NCM_TRIAL2_A,C1,3.785714286,2.899159664,2.293085641,1.5727295,-0.348409632,WN,1.7,WN,WN,C,xfostered,23,2,10,10/24/21,15,R,1.58,x,0.4014,-0.0498,0.000239973,NA,Good,N,Y,Actually had double hyperpolarization hump but I measured the first one,0.106076923,0.578153846,0.167692308,-0.093923077,0.378153846,-0.032307692,NA,0.300170805,N,0.12406577
C1,NCM,2,A,4,C1_NCM_TRIAL2_A,C1,2.8,9.333333333,2.111194652,2.32972093,2.37415728,YE77,1.4,BEFI,Unfamiliar,C,xfostered,23,2,10,10/24/21,15,R,1.58,x,0.4014,-0.0498,0.000239973,NA,Good,N,Y,Actually had double hyperpolarization hump but I measured the first one,0.373076923,0.222461538,0.321692308,0.173076923,0.022461538,0.121692308,0.175,0.000885492,Y,0.12406577
C1,NCM,2,A,5,C1_NCM_TRIAL2_A,C1,3.533333333,7.466666666,1.726543478,2.940683432,1.324779897,GN81GN82,1.5,ZEBI,Father,C,xfostered,23,2,10,10/24/21,15,R,1.58,x,0.4014,-0.0498,0.000239973,NA,Good,N,Y,Actually had double hyperpolarization hump but I measured the first one,0.273769231,0.193076923,0.267384615,0.073769231,-0.006923077,0.067384615,0.125,0.001362926,Y,0.12406577
C1,NCM,3,A,1,C1_NCM_TRIAL3_A,C1,3.533333333,4.411764706,1.726543478,1.690491275,0.336491836,ALP47,1.36,ZEBI,Unfamiliar,C,xfostered,23,2,10,10/24/21,15,R,1.63,x,0.3466,-0.06,0.000540002,NA,Good,N,N,,0.238615385,0.259461538,0.233692308,0.038615385,0.059461538,0.033692308,NA,0.16390183,N,0.173110214
C1,NCM,3,A,2,C1_NCM_TRIAL3_A,C1,3.933333333,5.302325581,2.120197655,2.324252112,0.457726363,DB22P31,2.15,BEFI,FosterFather,C,xfostered,23,2,10,10/24/21,15,R,1.63,x,0.3466,-0.06,0.000540002,NA,Good,N,N,,0.270461538,0.164692308,0.244538462,0.070461538,-0.035307692,0.044538462,0.235,0.168823242,N,0.173110214
C1,NCM,3,A,3,C1_NCM_TRIAL3_A,C1,2.714285714,1.890756302,1.728875643,0.928035278,-0.384656979,WN,1.7,WN,WN,C,xfostered,23,2,10,10/24/21,15,R,1.63,x,0.3466,-0.06,0.000540002,NA,Good,N,N,,0.145153846,0.468230769,0.273230769,-0.054846154,0.268230769,0.073230769,NA,0.209062103,N,0.173110214
C1,NCM,3,A,4,C1_NCM_TRIAL3_A,C1,3.533333333,6.571428571,2.030716505,2.059607367,1.030862834,YE77,1.4,BEFI,Unfamiliar,C,xfostered,23,2,10,10/24/21,15,R,1.63,x,0.3466,-0.06,0.000540002,NA,Good,N,N,,0.4,0.287230769,0.362230769,0.2,0.087230769,0.162230769,0.21,0.003431484,Y,0.173110214
C1,NCM,3,A,5,C1_NCM_TRIAL3_A,C1,2.333333333,4.622222222,1.718249386,2.023146483,0.863870249,GN81GN82,1.5,ZEBI,Father,C,xfostered,23,2,10,10/24/21,15,R,1.63,x,0.3466,-0.06,0.000540002,NA,Good,N,N,,0.163538462,0.213153846,0.143692308,-0.036461538,0.013153846,-0.056307692,0.185,0.010499621,Y,0.173110214
C1,NCM,6,A,1,C1_NCM_TRIAL6_A,C1,2.4,5.588235294,1.804755623,2.662768509,1.14710894,ALP47,1.36,ZEBI,Unfamiliar,C,xfostered,23,2,10,10/24/21,15,R,1.78,x,0.3386,-0.0517,0.00107999,NA,Bad,N,N,"Might not be auditory, maybe likes Stim1?",0.442615385,0.211769231,0.344076923,0.242615385,0.011769231,0.144076923,NA,0.004708409,Y,0.152687537
C1,NCM,6,A,2,C1_NCM_TRIAL6_A,C1,1.8,3.255813953,1.424279266,1.591913429,0.66983076,DB22P31,2.15,BEFI,FosterFather,C,xfostered,23,2,10,10/24/21,15,R,1.78,x,0.3386,-0.0517,0.00107999,NA,Bad,N,N,"Might not be auditory, maybe likes Stim1?",0.157230769,0.220615385,0.165153846,-0.042769231,0.020615385,-0.034846154,NA,0.038252914,Y,0.152687537
C1,NCM,6,A,3,C1_NCM_TRIAL6_A,C1,2.466666667,1.764705882,1.807392228,1.507929281,-0.316498961,WN,1.7,WN,WN,C,xfostered,23,2,10,10/24/21,15,R,1.78,x,0.3386,-0.0517,0.00107999,NA,Bad,N,N,"Might not be auditory, maybe likes Stim1?",0.148846154,0.293615385,0.257384615,-0.051153846,0.093615385,0.057384615,NA,0.285881445,N,0.152687537
C1,NCM,6,A,4,C1_NCM_TRIAL6_A,C1,3.071428571,3.87755102,2.894671118,2.200939676,0.24543878,YE77,1.4,BEFI,Unfamiliar,C,xfostered,23,2,10,10/24/21,15,R,1.78,x,0.3386,-0.0517,0.00107999,NA,Bad,N,N,"Might not be auditory, maybe likes Stim1?",0.251538462,0.237846154,0.271153846,0.051538462,0.037846154,0.071153846,NA,0.208725131,N,0.152687537
C1,NCM,6,A,5,C1_NCM_TRIAL6_A,C1,1.6,2.222222222,1.45405836,2.451648835,0.191697333,GN81GN82,1.5,ZEBI,Father,C,xfostered,23,2,10,10/24/21,15,R,1.78,x,0.3386,-0.0517,0.00107999,NA,Bad,N,N,"Might not be auditory, maybe likes Stim1?",0.230461538,0.275538462,0.261384615,0.030461538,0.075538462,0.061384615,NA,0.944182513,N,0.152687537
C1,NCM,7,A,1,C1_NCM_TRIAL7_A,C1,4.133333333,6.470588236,2.875181154,3.146705392,0.684383501,ALP47,1.36,ZEBI,Unfamiliar,C,xfostered,23,2,10,10/24/21,15,L,1.21,x,0.4398,-0.0647,0.00126,NA,Good,N,Y,Double-troughed (could be a narrow unit if measure the other one),0.423357143,0.329571429,0.362928571,0.223357143,0.129571429,0.162928571,0.195,0.043729844,Y,0.147112324
C1,NCM,7,A,2,C1_NCM_TRIAL7_A,C1,3.333333333,3.875968992,1.877181271,1.683132243,0.449244634,DB22P31,2.15,BEFI,FosterFather,C,xfostered,23,2,10,10/24/21,15,L,1.21,x,0.4398,-0.0647,0.00126,NA,Good,N,Y,Double-troughed (could be a narrow unit if measure the other one),0.197285714,0.270714286,0.202357143,-0.002714286,0.070714286,0.002357143,NA,0.16398687,N,0.147112324
C1,NCM,7,A,3,C1_NCM_TRIAL7_A,C1,3.6,3.607843137,2.720294102,1.804408654,0.003506043,WN,1.7,WN,WN,C,xfostered,23,2,10,10/24/21,15,L,1.21,x,0.4398,-0.0647,0.00126,NA,Good,N,Y,Double-troughed (could be a narrow unit if measure the other one),0.208142857,0.191214286,0.245214286,0.008142857,-0.008785714,0.045214286,NA,0.753375133,N,0.147112324
C1,NCM,7,A,4,C1_NCM_TRIAL7_A,C1,2.066666667,5.190476191,1.869555588,2.495866359,1.42318436,YE77,1.4,BEFI,Unfamiliar,C,xfostered,23,2,10,10/24/21,15,L,1.21,x,0.4398,-0.0647,0.00126,NA,Good,N,Y,Double-troughed (could be a narrow unit if measure the other one),0.320142857,0.2315,0.300571429,0.120142857,0.0315,0.100571429,0.335,0.001606449,Y,0.147112324
C1,NCM,7,A,5,C1_NCM_TRIAL7_A,C1,3.533333333,4.8,2.263583337,2.559761894,0.563650411,GN81GN82,1.5,ZEBI,Father,C,xfostered,23,2,10,10/24/21,15,L,1.21,x,0.4398,-0.0647,0.00126,NA,Good,N,Y,Double-troughed (could be a narrow unit if measure the other one),0.193928571,0.186642857,0.200785714,-0.006071429,-0.013357143,0.000785714,NA,0.093772414,N,0.147112324
C1,NCM,9,A,1,C1_NCM_TRIAL9_A,C12,1.642857143,2.678571429,1.499083969,1.515357646,0.614874096,APU170,1.36,ZEBI,Unfamiliar,C,xfostered,23,2,10,10/24/21,15,L,1.3,x,0.494,-0.1259,9.00E-04,NA,Good,N,N,STIM SET 2 Only likes 2 of the stimuli?,0.319,0.189846154,0.251615385,0.119,-0.010153846,0.051615385,0.155,0.068543728,N,0.2548583
